timestamp,orientation_x,orientation_y,orientation_z,orientation_w,angular_velocity_x,angular_velocity_y,angular_velocity_z,linear_acceleration_x,linear_acceleration_y,linear_acceleration_z
1727685260.123917,6.199611043877837e-07,-1.3861552081931444e-09,-1.4274793709301292e-06,0.999999999998789,-5.216368411240963e-08,5.40019191981248e-10,2.1597239045711624e-14,2.7014259576940854e-08,1.2138004421207596e-05,9.799958241865005
1727685260.1283073,6.191941993131987e-07,-1.378211218132476e-09,-1.427479370819107e-06,0.9999999999987894,-5.0614210481017795e-08,5.242799802898231e-10,1.82697660643402e-14,2.6864323255757957e-08,1.2123381719765665e-05,9.799959482114218
1727685260.1585217,6.184500800846921e-07,-1.3705012762798426e-09,-1.4274793704305289e-06,0.9999999999987899,-4.910961327935147e-08,5.08965124841718e-10,1.3080458286392884e-14,2.672415084987572e-08,1.2109143190350058e-05,9.799960685561352
1727685260.1992319,6.17492190565994e-07,-1.3605770523788058e-09,-1.4274793699864397e-06,0.9999999999987904,-4.717490750431454e-08,4.88795828668346e-10,1.596156835047879e-14,2.6529279930979112e-08,1.2090876817530436e-05,9.799962234693073
1727685260.2860804,6.167986327401553e-07,-1.3533945251553704e-09,-1.4274793697088839e-06,0.9999999999987907,-4.577328006940702e-08,4.740822366803494e-10,1.5136552432262276e-14,2.6393837105423056e-08,1.2077644273242054e-05,9.799963356368956
1727685260.3119302,6.161256798386751e-07,-1.3464247351188717e-09,-1.4274793695978616e-06,0.9999999999987913,-4.4413722873760715e-08,4.598464908715999e-10,2.059791919692628e-14,2.625209803606058e-08,1.2064804891628157e-05,9.799964444707534
1727685260.5532413,6.152593927617528e-07,-1.3374589390979917e-09,-1.4274793691537724e-06,0.9999999999987919,-4.266381349740218e-08,4.4132383404016744e-10,2.0187691924848417e-14,2.6083035907380472e-08,1.204827636443423e-05,9.799965845719113
1727685260.5542793,6.14632151934446e-07,-1.3309657806778479e-09,-1.4274793688207055e-06,0.9999999999987922,-4.139674137483301e-08,4.283550949555793e-10,1.9916240769057392e-14,2.5956028099112493e-08,1.203630066086079e-05,9.799966860140213
1727685260.568554,6.140235359049942e-07,-1.3246661430630175e-09,-1.4274793685986609e-06,0.9999999999987925,-4.016726707137484e-08,4.157089836791261e-10,1.4154778362780221e-14,2.584494751543536e-08,1.2024665309734807e-05,9.799967844451297
1727685260.8729358,6.132400791909353e-07,-1.3165519695774888e-09,-1.4274793684321274e-06,0.9999999999987931,-3.8584223424838624e-08,3.995493614318591e-10,1.4912154295628505e-14,2.5686477684105e-08,1.2009713753406933e-05,9.799969111493859
1727685260.8779063,6.126728151680118e-07,-1.3106789093420946e-09,-1.4274793679880382e-06,0.9999999999987934,-3.7438064266970685e-08,3.876711901342178e-10,1.2250718770555797e-14,2.5576788652330086e-08,1.199888070234387e-05,9.7999700289195
1727685260.914376,6.121224024658752e-07,-1.304976288301206e-09,-1.4274793680990605e-06,0.9999999999987939,-3.63253939906534e-08,3.764502615284443e-10,9.805126349504728e-15,2.547060483387308e-08,1.1988364674342493e-05,9.799970919101069
1727685260.9383776,6.115883460302759e-07,-1.2994433113008435e-09,-1.4274793677659936e-06,0.9999999999987941,-3.5247004130732997e-08,3.6521251541107315e-10,9.512285375616149e-15,2.5367704470669743e-08,1.1978205333899172e-05,9.799971782806757
1727685260.978771,6.109008724619671e-07,-1.2923222748654597e-09,-1.427479367543949e-06,0.9999999999987945,-3.3856823156433264e-08,3.50513385479481e-10,1.633717000010668e-14,2.5221497422875992e-08,1.1965056901065568e-05,9.799972894692957
1727685261.0427241,6.104031080970994e-07,-1.287166909806847e-09,-1.427479367155371e-06,0.9999999999987947,-3.285120946747777e-08,3.4031569360025393e-10,1.0870600826909468e-14,2.5126189378606575e-08,1.1955562996707561e-05,9.799973699738157
1727685261.3200624,6.099201210323276e-07,-1.2821665541867024e-09,-1.4274793669888375e-06,0.999999999998795,-3.1875779886180804e-08,3.2991956488788814e-10,1.415600012327912e-14,2.5028594179692013e-08,1.1946338721760576e-05,9.799974480893528
1727685261.3220432,6.092983776079758e-07,-1.2757310786630974e-09,-1.427479366822304e-06,0.9999999999987954,-3.062037891439017e-08,3.1692158066259544e-10,1.0417701254730159e-14,2.490909950319459e-08,1.1934488242412682e-05,9.799975486419669
1727685261.344043,6.088482015655423e-07,-1.2710710376072882e-09,-1.4274793666002594e-06,0.9999999999987956,-2.971082966071143e-08,3.0760354914043893e-10,7.865217748094353e-15,2.4824315462129677e-08,1.1925888467866818e-05,9.7999762145114
1727685261.3760083,6.084113930384487e-07,-1.2665490143766232e-09,-1.4274793665447483e-06,0.9999999999987961,-2.8828219032443134e-08,2.9857449120646947e-10,7.178222663780796e-15,2.4736198134941753e-08,1.1917542634996137e-05,9.799976920966147
1727685261.492848,6.078490984301971e-07,-1.2607279041281985e-09,-1.4274793662116814e-06,0.9999999999987964,-2.7692005849192602e-08,2.8653400082636985e-10,1.452610432569629e-14,2.4616666760226457e-08,1.1906815440097557e-05,9.799977830371546
1727685261.5213776,6.074419704361026e-07,-1.2565091750644932e-09,-1.4274793662671925e-06,0.9999999999987967,-2.686968133642758e-08,2.784397453156907e-10,7.439191075474223e-15,2.454499744144461e-08,1.1899050845944045e-05,9.799978488829849
1727685261.748564,6.070469371029542e-07,-1.2524153681621428e-09,-1.4274793659341256e-06,0.9999999999987967,-2.6071252640629917e-08,2.7009955217233137e-10,9.989296655759312e-15,2.4464429905640078e-08,1.1891509829542592e-05,9.799979127728191
1727685261.749437,6.066681148844519e-07,-1.4823536948884621e-09,-0.000822690244043689,0.9999996615901399,-2.5121460606853223e-08,-8.158799186269724e-08,-0.08147115709812736,0.37123675347994906,0.050515615534392884,9.799979684086603
1727685261.7859554,6.061934711423315e-07,-2.921856534784401e-09,-0.003651238379390853,0.9999933342067483,-2.0564410282355716e-08,-1.9771289384149663e-07,-0.16851328251822342,0.15818938264626603,0.026381275673041753,9.799980569285086
1727685262.0565286,6.058431870806187e-07,-4.485240955034307e-09,-0.006235656660338484,0.9999805581038299,-2.2890679324586853e-08,-2.1003198054173704e-07,-0.17274628908249867,0.003963013875485925,-0.0036668199679430833,9.799981125894552
1727685262.0635238,6.05482538348341e-07,-6.263005397599171e-09,-0.009526430973629207,0.9999546225267115,-2.3029067746958597e-08,-2.7961713343990226e-07,-0.24215648387998687,0.3173225815908203,0.03112760802676769,9.79998164460236
1727685262.0891182,6.050687630705331e-07,-9.520306960907786e-09,-0.01510749333768907,0.9998858753101201,-1.9532749818882095e-08,-3.473358277052439e-07,-0.2863901803449471,0.0192954235493647,-0.008649879716459748,9.799982397022442
1727685262.118006,6.047362551440882e-07,-1.2138751757453996e-08,-0.01940906280768312,0.9998116263979737,-1.908025814466766e-08,-3.4852033605937606e-07,-0.28686462624255193,0.002010607607451109,-0.011456431259386161,9.799982941725613
1727685262.1471112,6.044007893344699e-07,-1.4756111830278406e-08,-0.02371116462359818,0.9997188508134809,-1.8533638588797625e-08,-3.48345384531518e-07,-0.2868747693096481,0.001641040916350392,-0.01150993602593724,9.799983448965284
1727685262.188436,6.03920481653081e-07,-1.8296062554824322e-08,-0.029775389016796994,0.9995566148090528,-2.0440603770262414e-08,-3.868368474116818e-07,-0.33072868191325444,0.3091761628385622,0.018105072445769126,9.799984065411751
1727685262.3945713,5.988454699018133e-07,-6.760177672352388e-08,-0.11270761062578843,0.9936281973186258,-2.7171589797909104e-09,-7.773192424482584e-07,-0.6425357586556422,0.010062667175908433,-0.057449019546267695,9.799988644769007
1727685262.3999434,5.978792551981939e-07,-7.356291923162929e-08,-0.12293145723971732,0.9924151635382021,-1.6646212211469826e-08,-8.42168208745349e-07,-0.7082900662425772,0.31646540461314937,-0.0738334904616808,9.799989007427914
1727685262.4125595,5.971970971934963e-07,-8.016150644726744e-08,-0.13407482966407985,0.990971210505222,6.283264438186529e-08,-9.163821293190831e-07,-0.7652738255973929,0.19684852497653743,0.10758814776443594,9.799990558565637
1727685262.4461806,5.963620140304972e-07,-8.711878517501351e-08,-0.14554379354061237,0.9893518101067205,4.814418322147104e-09,-9.352179222325369e-07,-0.7734136525886446,0.023053001549622597,-0.07981176307926709,9.799989607313691
1727685262.4533849,6.036136529570492e-07,-2.146004377672252e-08,-0.035165082144288096,0.999381517238247,-1.4393756667398148e-08,-4.402231807558494e-07,-0.36478051836713177,0.05131212840182652,-0.008550520658440074,9.799984492613182
1727685262.4552395,6.031858994060189e-07,-2.496127723891449e-08,-0.04129005744231384,0.9991472019457622,-1.9415405752946637e-08,-5.076037410667626e-07,-0.43055549419306954,0.3105884342689355,0.00040960898935120773,9.799985018019859
1727685262.4666498,6.028989479573744e-07,-2.9047224114743848e-08,-0.048228353852181605,0.998836335885086,-7.2698905463651655e-09,-5.674484984386013e-07,-0.4708775760530406,0.07679356273352565,-0.008997555741498232,9.799985203302477
1727685262.4914544,5.949917085410947e-07,-9.641374797132544e-08,-0.16083800700556034,0.9869808182037358,3.794221109755719e-09,-9.363220823788693e-07,-0.7739226272260331,0.012047229377826119,-0.08380993915553232,9.799990076245185
1727685262.5123086,6.023772853778579e-07,-3.4781942018778775e-08,-0.057688819136381575,0.9983346133167403,-1.0987417835345608e-08,-5.744704879975188e-07,-0.47413587847835154,0.00615602671618518,-0.031190190664852766,9.799986072469133
1727685262.5639548,5.938664840295783e-07,-1.0337071183751509e-07,-0.17228475884440492,0.9850471876359841,3.627702534826174e-09,-9.363157532807646e-07,-0.7739341768305512,0.011796801480940852,-0.08385314552273698,9.799990374189964
1727685262.596725,5.926373250899401e-07,-1.1049326080563628e-07,-0.18426843249241476,0.9828759559509148,1.1569864140415431e-08,-9.915766622806216e-07,-0.8239812986871852,0.12569319001063106,-0.06432837717748122,9.799990472221088
1727685262.5968757,6.019506550724262e-07,-3.908954558216861e-08,-0.06478843360479641,0.9978990223818605,-1.070089763322384e-08,-5.744107856769189e-07,-0.4742097771548808,0.0045515922696365806,-0.03145993475569009,9.799986488528535
1727685262.626946,6.014980717546755e-07,-4.339251670517694e-08,-0.07188499325241088,0.9974129274000498,-1.041561938345335e-08,-5.742026057658631e-07,-0.47421422083449905,0.004455117400919087,-0.031474007010992046,9.799986890976005
1727685262.8446004,6.008347183083733e-07,-4.930633724569494e-08,-0.08194955800413922,0.9966364783322765,4.661536496119535e-09,-6.338315363605989e-07,-0.5304894236260997,0.17918566445419154,0.02029243161929706,9.799987773555399
1727685262.8468492,6.00141232698773e-07,-5.42808254861479e-08,-0.09053241416063523,0.9958935093602548,-1.7145418938650248e-08,-7.069755143203944e-07,-0.5962517939807683,0.31370255801051605,-0.03945628110254926,9.799987794206611
1727685262.8577318,5.904424783021511e-07,-1.204695445895819e-07,-0.2011458659148357,0.9795613000854043,-1.7004787492741546e-08,-1.065479093719184e-06,-0.8928686293919128,0.3218100095232799,-0.1435318913046814,9.799991109895847
1727685262.8705752,5.892022398195072e-07,-1.2869263325444027e-07,-0.21478594636605713,0.9766611476061046,5.325191180925541e-08,-1.1333215968855664e-06,-0.9416839273765099,0.14277137141624702,0.0036443963991666167,9.799990950390205
1727685262.8714468,5.997193490759649e-07,-5.98644409793861e-08,-0.09993981494211823,0.994993484093726,6.039129205099218e-09,-7.692284005375213e-07,-0.6388687159867846,0.08930687501805235,-0.02057815215532751,9.799987570459374
1727685262.9046714,5.87542155259811e-07,-1.371383852461347e-07,-0.2286281930401564,0.9735138156938653,1.4011143729688624e-08,-1.1464679977426414e-06,-0.9472111483423097,0.025251835938720404,-0.12298393432327785,9.799991575843274
1727685263.010508,5.850453084912396e-07,-1.4837785394576952e-07,-0.24703431031868,0.9690067334776418,1.2882117470130864e-08,-1.1475398696089853e-06,-0.9475568159948404,0.017785470238275838,-0.1256783621847557,9.799991950645175
1727685263.0379736,-5.830253372855622e-07,1.5677554889929282e-07,0.26078182453564874,-0.9653977625784583,1.2436066549618286e-08,-1.1477675347163514e-06,-0.9475646489517662,0.017615396505197188,-0.1257073544306175,9.79999219439655
1727685263.0692334,-5.803771287602541e-07,1.6519072901040393e-07,0.27510864604693247,-0.9614131436951854,-1.8738021703005995e-08,-1.2124696270617115e-06,-1.0132860551434932,0.3259039701848928,-0.1977657968762472,9.799992522540744
1727685263.347294,-5.774409917895561e-07,1.7413417107390646e-07,0.290317548310998,-0.9569303637895119,-1.7939423722220828e-08,-1.2911658457300883e-06,-1.078944605931999,0.3251477966073936,-0.2303135145226075,9.799992790920365
1727685263.3619237,-5.748467913470859e-07,1.8733286776491956e-07,0.3115305468646894,-0.9502361382150343,3.652061269097105e-08,-1.358806135358044e-06,-1.121997792825778,0.06621197898989006,-0.1355381346755703,9.799992193860897
1727685263.3973186,-5.719088164898824e-07,1.9715993325006792e-07,0.3275002500695523,-0.944851092079601,2.3540740282453084e-08,-1.3637301147081508e-06,-1.1238369256334477,0.027235011421813674,-0.1759963829107068,9.799993217012982
1727685263.6767519,-5.683366458085651e-07,2.0683960795988084e-07,0.3436904316828158,-0.9390830033438544,-2.1339932969886946e-08,-1.4026524592551328e-06,-1.1677158990581975,0.33327795387386316,-0.2774185275018722,9.799993565488377
1727685263.692491,-5.63558140687578e-07,2.2062508909291105e-07,0.3664953231610319,-0.930419893435606,1.1788422034282171e-07,-1.5019171997834798e-06,-1.2464696509128073,0.22949437239683604,0.046047276973868845,9.799995455222533
1727685263.724394,-5.602395653073966e-07,2.316544321823896e-07,0.3840335589141993,-0.9233191353087655,3.832671191081149e-08,-1.535971889756663e-06,-1.2640907768402063,0.05530535439536632,-0.20537744694286783,9.799993598123512
1727685263.7543955,-5.561265860631673e-07,2.424824170001624e-07,0.40148327140916285,-0.9158663563960784,3.2111691483054824e-08,-1.539441169530696e-06,-1.265154336079205,0.03268402379901596,-0.22370691925099134,9.799994135399688
1727685263.8217766,-5.500330876237129e-07,2.566730097124164e-07,0.42462671466098967,-0.9053685178952523,-2.5811887943045727e-08,-1.5530305096070027e-06,-1.2871225352712374,0.3409311446643396,-0.3467756702448979,9.799993437111532
1727685263.8536694,-5.455616529674356e-07,2.6771490127301486e-07,0.4422771748774739,-0.8968784201785831,3.618168798995893e-08,-1.5939358297213612e-06,-1.309082116100507,0.06376665988980688,-0.2289427369942388,9.799994410756693
1727685264.0762694,-5.400079035672772e-07,2.7842366974353595e-07,0.46010514878754877,-0.8878644333786653,-2.695289587261033e-08,-1.6355308309390496e-06,-1.353728478602624,0.3421745236042831,-0.3884913951956999,9.799994936593016
1727685264.0835593,-5.342681109270834e-07,2.8962921050952364e-07,0.47858692860982543,-0.8780401766225987,9.662430570352762e-08,-1.7104172487952048e-06,-1.4131502234174507,0.24678670588039245,-0.1016467080306389,9.79999716724195
1727685264.1258404,-5.272828406208978e-07,3.0574437926431995e-07,0.5035923979904353,-0.863941373407867,4.779955014273834e-08,-1.7596145695388822e-06,-1.4405049044249303,0.05968488716215826,-0.27548705027336706,9.799994890932881
1727685264.2035322,-5.210145039389861e-07,3.1743643276478667e-07,0.5221503667135168,-0.8528534425917313,4.2152564622828885e-08,-1.7631777555261582e-06,-1.4413630183998294,0.0416183214597721,-0.29067728437999724,9.799995332377428
1727685264.2359138,-5.144594175495143e-07,3.2898574887617196e-07,0.5404675824227501,-0.84136483902629,4.024744324628528e-08,-1.764909147572686e-06,-1.4415508310157608,0.04120890444434106,-0.2924632617098041,9.799995487825841
1727685264.2781372,-5.052140426891371e-07,3.443079363621889e-07,0.5649301062583906,-0.8251387610835585,6.74339312259682e-08,-1.8170187242412209e-06,-1.4866607208565887,0.14266402209539633,-0.22940972116221423,9.799995219638435
1727685264.4876928,-5.025818335194215e-07,3.5924606734711163e-07,0.5831321541003489,-0.8123773081849992,6.17040511260818e-07,-1.8248704840848362e-06,-1.474584266603235,-0.059968527601549554,1.2911499597852583,9.799993749138267
1727685264.5032146,-5.017075759100429e-07,3.757127051939589e-07,0.6007855284819819,-0.7994102506011745,5.984524402292804e-07,-1.8295662338433488e-06,-1.4533009825673258,0.01552376476431328,1.3078519544033764,9.799993843963659
1727685264.5652423,-4.967164635928797e-07,3.9502728082276354e-07,0.6232048628697003,-0.7820586288093465,3.2418773731394513e-07,-1.7864747401981918e-06,-1.3887511261332206,-0.08215828497376237,0.6190076221397978,9.799994927797412
1727685264.8303049,-4.939338624311294e-07,4.099893876001488e-07,0.6390653220790431,-0.7691524648049936,5.661527203856033e-07,-1.7566640982727743e-06,-1.3569344475767207,0.13179474760535712,1.3752028624490023,9.799994022600966
1727685264.8364391,-4.909385744491821e-07,4.2494535796659726e-07,0.6544156458920427,-0.7561350159933601,3.6379041227602397e-07,-1.7537381698973972e-06,-1.3297582671929504,0.07697603514078438,0.8617350818654806,9.7999911307167
1727685264.8657851,-4.854801194348098e-07,4.37634399439238e-07,0.6689548862065703,-0.7433030070031518,2.8337127981615225e-07,-1.6972285539306465e-06,-1.274405048988579,0.059265955089080606,0.6951387895965733,9.799995177661943
1727685264.904564,-4.781538250391904e-07,4.537349284434604e-07,0.687016341131945,-0.7266419661822736,2.709289476795774e-07,-1.615987977381748e-06,-1.2012979776459,0.08891010768778385,0.739010500840941,9.799995266244014
1727685264.9720216,-4.722329307152188e-07,4.647991566432356e-07,0.6996419112683802,-0.7144936640700804,2.1134762232589974e-07,-1.558277278669053e-06,-1.1518625607278568,0.13788263440274273,0.6295287648577914,9.799995189108081
1727685265.0023224,-4.6641085529528303e-07,4.7544105431655494e-07,0.711531521029351,-0.7026541785125984,2.208559412950582e-07,-1.5002113215972247e-06,-1.102024121835787,0.14188568441777033,0.7022034087238033,9.799995531027628
1727685265.239237,-4.58098852182288e-07,4.881751774273188e-07,0.7262390247225059,-0.6874422731907422,6.276590799461947e-08,-1.4137348887868013e-06,-1.0279039636502996,0.07308249832534652,0.314488713752419,9.799993694265938
1727685265.2432222,-4.5116665952885925e-07,4.960291679916792e-07,0.7362945338690854,-0.6766611850801378,6.34434681486532e-08,-1.323510906756122e-06,-0.9603029498177746,0.06280541659339893,0.3555837325776777,9.799996246988513
1727685265.2757084,-4.4459322906828144e-07,5.032708812535446e-07,0.7455119062139359,-0.6664923088024441,5.826684595788294e-08,-1.2324486043513988e-06,-0.8922623067418131,0.047342586819127674,0.37723381751051227,9.799996307159965
1727685265.3833447,-4.367682147894612e-07,5.123951762321604e-07,0.7565647177246168,-0.653918823627075,7.747822981074376e-08,-1.1153556008552473e-06,-0.8051476473567566,0.04178733973921941,0.47700673567431234,9.799995211987039
1727685265.4141927,-4.296318077005477e-07,5.167308729333814e-07,0.7641940098193318,-0.6449864458698332,-1.3644461835575007e-07,-1.0649749643473847e-06,-0.7780653938688632,0.28754302214173005,-0.0687688143978115,9.799996739234567
1727685265.4435208,-4.2276168198345133e-07,5.205386316274277e-07,0.7710763855312097,-0.6367426541984411,3.031498860117597e-10,-9.535049966442623e-07,-0.6889215833527962,-0.050287949649128784,0.28343604986615223,9.799998912336312
1727685265.667727,-4.1712609884216453e-07,5.244659821027072e-07,0.7771314520987448,-0.62933830819238,-1.9681775846227702e-07,-8.470948629396996e-07,-0.6071506540142597,-0.18814291865283417,-0.2534270844903227,9.79999277307314
1727685265.6745129,-4.0892894191662075e-07,5.263336807820412e-07,0.7836608749851417,-0.621188886746276,-1.6910370856723814e-07,-6.557186062773477e-07,-0.4714175010719771,-0.24711837229370134,-0.16493033755868453,9.79999797876807
1727685265.7065964,-4.0547732867048015e-07,5.291819082066433e-07,0.7875321400865475,-0.6162735823725191,4.648466723045071e-08,-5.408534145376361e-07,-0.39203784969803224,-0.16352437300931438,0.45909146373148996,9.799997298709732
1727685266.0064657,-3.993114981330989e-07,5.274661108037529e-07,0.7909547318840378,-0.6118746702632917,-8.420917564211317e-07,-4.911618007035011e-07,-0.36642330609178164,0.11335114094268266,-1.9628340835313869,9.799985953878226
1727685266.0110123,-3.8561723662495543e-07,5.173366512773628e-07,0.7952776244834693,-0.6062454123500761,-8.08807623147921e-07,-4.515669222551676e-07,-0.34760635317796407,0.06826936101971555,-1.9607036722931648,9.800000285388714
1727685266.0196028,-3.758694966572481e-07,5.098510604479499e-07,0.7983379547169388,-0.6022096894421192,-7.846517715159214e-07,-4.2248929450727024e-07,-0.33263013567172084,0.04054613170719078,-1.9584850325616163,9.80000030318676
1727685266.0577037,-3.6655371479184085e-07,5.024633965135936e-07,0.8012406848867388,-0.5983421804300971,-7.611824599406877e-07,-3.9394563182026754e-07,-0.3172014098273819,0.014576402356121782,-1.9562721349280634,9.800000320484374
1727685266.1255312,-3.5478148233167844e-07,4.9276740381682e-07,0.8048637017001246,-0.5934597051908447,-7.309325741865931e-07,-3.567733497374478e-07,-0.2959808206851254,-0.017161030390488118,-1.9533543008856504,9.80000034277677
1727685266.1562178,-3.5796559649436245e-07,5.014101812965084e-07,0.8073878584426059,-0.5900210555896147,5.822961584763269e-07,-3.386789259983253e-07,-0.27859907134274725,-0.029167467751377584,1.7005741603916387,9.799995676435367
1727685266.4036107,-3.593264165937439e-07,5.074220802240823e-07,0.8096686383321331,-0.5868872942064796,-2.0237733082518307e-08,-3.0681414101845893e-07,-0.2351575309875718,-0.38314699281783166,0.030719749033371817,9.799986216512908
1727685266.4058971,-3.59065119375768e-07,5.102514937279553e-07,0.8113144441313264,-0.5846100176557767,1.4953480144327141e-07,-2.1201440600200366e-07,-0.1644884011275812,-0.26970860831783805,0.5313632643757625,9.799997357527547
1727685266.4458525,-3.59036429271574e-07,5.126691422324347e-07,0.8125349655113405,-0.5829124546800255,1.2824405200434768e-07,-9.208252811031885e-08,-0.07022388786097629,-0.27353158225433344,0.4883263346290138,9.79999781724897
1727685266.4852662,-3.5838414922830283e-07,5.124667541446333e-07,0.8129779922916318,-0.5822944135478859,-1.0495630947689278e-07,-4.929239092604323e-08,-0.04185061623670597,-0.1451257716155526,-0.1359221786788987,9.799997208927516
1727685266.5140529,-3.576531472592195e-07,5.118064341423147e-07,0.813309792130432,-0.5818308878225388,-6.163009362811404e-08,-3.643746513597246e-08,-0.03754453639892316,0.007063379887971479,-0.000997531136488118,9.799998230737913
1727685266.5538347,-3.5768768387120185e-07,5.119821232106101e-07,0.8134505078747571,-0.5816341386455146,-4.4570032477548724e-08,1.3663664754759735e-08,0.00419362527161617,-0.058688287434474726,0.03792575925735802,9.799996227041007
1727685266.8023403,-3.591573603079409e-07,5.136751637240841e-07,0.8134020868514882,-0.5817018524168984,5.646542135404408e-07,1.740582383178303e-08,0.005605858264697854,0.0009454190491608624,1.7303625784286134,9.800008469121668
1727685266.8323233,-3.6323094681915513e-07,5.190191705354998e-07,0.8133134861429187,-0.5818257241284979,2.3107623355224525e-07,2.582962007815927e-08,0.019471794859728546,-0.19721311548008622,0.8246198150735047,9.799990954278872
1727685266.894755,-3.645104225942645e-07,5.194514735952858e-07,0.812640566609939,-0.5827652267418454,-5.539761292222577e-08,1.0173485511882037e-07,0.07277936629169555,-0.08690332982907911,0.05973037887232403,9.799995359104168
1727685267.1668274,-3.6636331853938023e-07,5.205198483592655e-07,0.811995542702669,-0.5836636348365322,5.457445389087156e-07,1.0477361792347777e-07,0.07280719514277677,-0.002216663549605638,1.731774463044652,9.800008589569224
1727685267.1702821,-3.6920445500632105e-07,5.228735559375193e-07,0.8112006689618589,-0.5847678810223956,9.391876807461781e-08,1.383990150901988e-07,0.10763424069119287,-0.2826451862413014,0.472495457958144,9.7999967193063
1727685267.187814,-3.7123926538882525e-07,5.233350329248801e-07,0.8100458460448428,-0.5863665468843557,2.4175611731528383e-07,1.8573739416752037e-07,0.13291201162120983,-0.010901610680079476,0.9238744543922927,9.800002295491959
1727685267.2292244,-3.729266697961064e-07,5.223181001142927e-07,0.8084962603520233,-0.5885013143539966,2.588425196493069e-07,1.817793033191318e-07,0.13194788938644444,-0.05600842113815939,0.9657899553489017,9.800004276983998
1727685267.3112478,-3.734552666820527e-07,5.205544488277036e-07,0.8073293732634605,-0.5901010786853532,-9.08230907437872e-08,1.822403521180382e-07,0.13201480539666463,-0.05696421034436506,0.0004347194941265384,9.799998569929825
1727685267.342968,-3.753454353616024e-07,5.206091193026956e-07,0.806046635869461,-0.5918520261037487,9.92154949215783e-08,2.0638385734689426e-07,0.15916516458270177,-0.2888533804531383,0.49524400439303823,9.799995564466723
1727685267.6180303,-3.772826459533325e-07,5.190471468073423e-07,0.8038984369983058,-0.5947665953895437,1.0071227206874522e-07,2.5269238777737375e-07,0.19418688721020236,-0.29498767171311524,0.49653153960968566,9.800001848931078
1727685267.6231916,-3.793408401392929e-07,5.18045900329163e-07,0.8018964712853517,-0.5974630108548049,-4.4558153289113905e-08,3.116433697999473e-07,0.2339683683862809,-0.20104194269840403,0.11119436732091399,9.799996559258032
1727685267.644092,-3.8057302940491574e-07,5.154165940121232e-07,0.7996888739465514,-0.6004146108196287,-8.933895907421794e-08,3.323574902818328e-07,0.24712446946247382,-0.12456418089107131,-0.009477577877378799,9.799998866262861
1727685267.691003,-3.825745092075597e-07,5.12294077782944e-07,0.7966921280558633,-0.6043853514881139,1.0303206509437781e-08,3.3498290827733416e-07,0.2527995510652648,-0.18906584326595177,0.2476865708172499,9.800000468415641
1727685267.7187526,-3.8395840233371555e-07,5.097126627767167e-07,0.7943780238970432,-0.6074237031504627,-8.39646227776645e-08,3.4063423746711015e-07,0.2548333511138906,-0.12027721854667064,-0.008019086102394843,9.79999890889486
1727685267.7545803,-3.8554455862664727e-07,5.074012825780615e-07,0.7920444469861304,-0.6104634256022458,-7.276352790269171e-08,3.410465625978765e-07,0.25589595546373933,-0.12262666897215951,0.01777382425560636,9.799997765107628
1727685268.0380812,-3.869038062373031e-07,5.048038632296292e-07,0.7896946966891759,-0.6135000293566297,-8.010790443533609e-08,3.402648677795357e-07,0.2559804058809746,-0.11986993565597061,-0.008535669203424735,9.79999900084499
1727685268.0794978,-3.9158419272339073e-07,5.047460760592297e-07,0.7862244561960389,-0.6179410202267162,5.794162187063145e-08,3.9405617629763475e-07,0.30418913932072583,-0.3508294036241985,0.3509612370321208,9.799998298536556
1727685268.1170297,-3.9312693780161454e-07,5.015283074238341e-07,0.7833141218150703,-0.6216260825968286,-9.304213428390614e-08,4.1778808451884984e-07,0.3155092045100218,-0.17270309044123489,-0.04818185865276874,9.800000554845164
1727685268.4121764,-3.9491239538541125e-07,4.985434190929635e-07,0.78035925061251,-0.6253314640917067,-7.880196654509534e-08,4.180097168000873e-07,0.31600782579598846,-0.15524672960110866,-0.013251442779692663,9.79999911204954
1727685268.4216785,-3.978250966108337e-07,4.950137781762347e-07,0.7761864388286612,-0.6305034592911267,-7.579537331645324e-08,4.406974447606213e-07,0.3343639947809373,-0.17002862193166235,-0.013465848112976046,9.799999060014239
1727685268.4559307,-3.9970455129374187e-07,4.918948153422621e-07,0.7730009074544859,-0.6344049157077358,-7.439563301356751e-08,4.416533959332502e-07,0.3359539265848439,-0.16679265459221115,-0.015828997863184167,9.799999209965993
1727685268.4960294,-4.016412575900034e-07,4.888642367236436e-07,0.7697938500647686,-0.6382925883966223,-7.197870607857048e-08,4.40531177003977e-07,0.33598824511898373,-0.16560170694659798,-0.014820722046751262,9.799999196810232
1727685268.5654333,-4.0415538018735893e-07,4.848160998005603e-07,0.7655136439484701,-0.6434196615960197,-6.92222444318784e-08,4.359864276854388e-07,0.33373987375291964,-0.16386982833468428,-0.014642340764925434,9.799999232772498
1727685268.5960238,-4.061093883243739e-07,4.819054549223383e-07,0.7622869716524395,-0.6472391929175454,-5.3638334144924115e-08,4.340826412269997e-07,0.3325483086966248,-0.14769091016055286,0.025429090403304218,9.799999471003076
1727685268.8513784,-4.080101733116376e-07,4.789791686665043e-07,0.7590528106746556,-0.6510290551169813,-6.54855758361782e-08,4.316774079397767e-07,0.3321031603198305,-0.16335043323770232,-0.014313708555748508,9.79999926959864
1727685268.8542242,-4.096273392251218e-07,4.7612976630456723e-07,0.7562064366771062,-0.6543331148029413,-6.526624415525208e-08,3.7029763130943766e-07,0.283687405887076,-0.08860990197203793,-0.00496572767150699,9.79999935521319
1727685268.8823962,-4.1175178522803316e-07,4.728352934392617e-07,0.752492553704894,-0.6586007566183736,-2.564542905364877e-08,3.6576949362174504e-07,0.28425543858266183,-0.16684656670044992,0.08718092320920226,9.799999917058031
1727685268.91358,-4.1328749778273504e-07,4.7028953210687137e-07,0.7496708569960951,-0.661810853771943,-6.076475499107251e-08,3.674424680461231e-07,0.28501109473441416,-0.14146541312475988,-0.010443389230932432,9.799999328475263
1727685268.9428842,-4.147973613724212e-07,4.677468281134465e-07,0.7468647741925959,-0.6649759462340361,-5.9176902340037065e-08,3.608350003913245e-07,0.27992155141063935,-0.12339585036091252,-0.008011507818360955,9.79999935107079
1727685268.9877787,-4.167577517115763e-07,4.6443132333868196e-07,0.7431730961292364,-0.6690992072849101,-5.705584397315972e-08,3.512746419012678e-07,0.27318245160245946,-0.11644866426279205,-0.0069469362224666795,9.79999937273696
1727685269.243775,-4.1818606685141654e-07,4.620013702562596e-07,0.740429769854447,-0.6721337336519438,-5.5521533944332786e-08,3.489148566740462e-07,0.27266090640813667,-0.13444423964658456,-0.009669108445643759,9.799999403574956
1727685269.2737234,-4.1944995428535826e-07,4.5973982775600647e-07,0.7380452665940235,-0.6747512018942755,-5.4660779592968003e-08,2.9705326021596825e-07,0.2316358447694421,-0.08260243575152533,-0.002248179230075659,9.7999994014958
1727685269.3297992,-4.2094136346889936e-07,4.569147806983223e-07,0.7349183321862874,-0.6781556200579183,-5.268773679302926e-08,2.9420505577107494e-07,0.23200832140823546,-0.13209415940966024,-0.009459104052579707,9.799999443096407
1727685269.6221156,-4.2207410007729225e-07,4.548079206505519e-07,0.732549442199773,-0.6807138273404003,-5.1133679414728176e-08,2.9512344576517406e-07,0.2324882415935891,-0.11553638319528724,-0.007114158319977665,9.799999458980587
1727685269.62428,-4.230833209271633e-07,4.528375730285582e-07,0.7304728265384918,-0.682941761564251,-5.009266272430553e-08,2.536790752160001e-07,0.19953219529517713,-0.07353412532415335,-0.001333867436249126,9.799999455504713
1727685269.6358972,-4.239718873634256e-07,4.509917168057557e-07,0.72845370552578,-0.685095029105727,-4.878443968418924e-08,2.481124493301946e-07,0.19646293839586296,-0.09509243308329401,-0.004663529382316803,9.799999486736656
1727685269.674769,-4.2515162745582955e-07,4.485678112872529e-07,0.7257570156625672,-0.6879511277817503,-4.690914538210781e-08,2.473403626565246e-07,0.1963956449347987,-0.09741413943839496,-0.005018831307999091,9.79999950881055
1727685269.7477348,-4.260456764277205e-07,4.4676614327236054e-07,0.7237194611157555,-0.6900942990649461,-4.553080130935274e-08,2.483491219633364e-07,0.1976559802979506,-0.10175564430666384,-0.005619710861552583,9.799999524932923
1727685269.7776234,-4.268328927843258e-07,4.448391751836351e-07,0.7217854811203601,-0.6921168393006129,-8.003897898986165e-08,2.2866754682508456e-07,0.16419067530355547,0.37134934554465726,-0.03869334690603403,9.799998916675914
1727685270.0544894,-4.274838128281089e-07,4.431961800575206e-07,0.7202361407163714,-0.6937289828208187,-4.225089035775659e-08,1.272247586759481e-07,0.10215146845740515,-0.028003110212087547,0.0050434181888036654,9.799999404765508
1727685270.0560749,-4.277214111973115e-07,4.421597591407743e-07,0.7192698653411862,-0.6947307829740188,-4.208015977425803e-08,1.1301186195320099e-07,0.09167465267516264,-0.037581296375934575,0.0006862549795958297,9.799999535818783
1727685270.0681345,-4.278926236767178e-07,4.411287914150568e-07,0.7182941889712776,-0.6957395044768674,-4.122383059621614e-08,1.1579744693834539e-07,0.09770579079764495,-0.13297144608431274,-0.013600807024816013,9.799999581787798
1727685270.1065702,-4.282122247682112e-07,4.397046586159203e-07,0.7169028903035874,-0.6971730386883773,-3.9385486766973955e-08,1.2300898802511338e-07,0.10010062393145572,-0.050357311670610715,-0.0013524672116352154,9.799999595294802
1727685270.1397977,-4.212703748860189e-07,4.3127246116127296e-07,0.7158994495035593,-0.6982033931456774,-7.183575706575689e-07,1.155171672801349e-07,0.09380585876167248,-0.018484533708740262,-1.9207434321717003,9.800002056823367
1727685270.1674764,-4.144851103583632e-07,4.2313853538469097e-07,0.7149585130044307,-0.699166878993951,-6.96959057458308e-07,1.0567980086563783e-07,0.08780146986452493,-0.011741232558230313,-1.9205071012368897,9.800002023730654
1727685270.2000341,-4.0785570216070277e-07,4.152907672277487e-07,0.7140773356341357,-0.700066824477003,-6.761945567779382e-07,9.656317555704796e-08,0.08208198765642126,-0.005778785600859093,-1.9202934556911369,9.800001991657295
1727685270.5045424,-3.992570847832095e-07,4.0525211869057046e-07,0.7129907007138919,-0.7011734883002848,-6.494629991580851e-07,8.545368792229555e-08,0.07488871814396865,0.0010494428709183995,-1.9200393493560013,9.800001950392003
1727685270.536534,-3.9298691581471203e-07,3.9802757494755274e-07,0.7122384612492833,-0.701937585770231,-6.301070045526488e-07,7.785381007319065e-08,0.06980975368198007,0.005396906013273681,-1.9198686735115011,9.800001920524128
1727685270.566464,-3.868683493190381e-07,3.910522847777376e-07,0.7115370820052863,-0.7026485472347463,-6.113247792972545e-07,7.083705532570278e-08,0.06499380512880853,0.009137071200943791,-1.9197125532725647,9.800001891569291
1727685270.8292606,-3.9269184459838936e-07,3.9604375605623855e-07,0.7106743250996628,-0.7035211465505692,7.041455187449557e-07,6.314231877348318e-08,0.05930336508215539,0.012169181938589414,1.732402575147354,9.799997598250718
1727685270.836977,-4.0028990189988257e-07,4.0308865423095437e-07,0.7100752924826418,-0.7041257551072592,6.831817981752995e-07,6.025902263310891e-08,0.05549490700047227,0.008227191578835894,1.7321443266092276,9.799997576594398
1727685270.8694544,-4.0766269187411096e-07,4.099222751894344e-07,0.7095138365740383,-0.7046915039289565,6.628382618631879e-07,5.751107891089607e-08,0.05199081693925774,0.0047516793021556425,1.7318891985243428,9.799997555596072
1727685270.9486318,-4.1715364030412657e-07,4.1871656333445176e-07,0.7088186404250408,-0.7053907675789692,6.366503499877673e-07,5.405536110190146e-08,0.04774646549854859,0.0007512129040401523,1.731554785571,9.799997528614256
1727685270.9892213,-4.240253417288269e-07,4.2508257375688123e-07,0.7083338670841397,-0.7058775621460621,6.17688059478497e-07,5.1615419174625954e-08,0.044853265255113545,-0.0018345452690296824,1.7313087204590656,9.799997509086905
1727685271.0168233,-4.238119067044454e-07,4.2426494418407784e-07,0.7077652496691381,-0.7064476989561386,-1.305631593739739e-08,6.37410954060557e-08,0.05473427180541089,-0.028936009693784782,-0.006762943661154984,9.79999996380252
1727685271.2237818,-4.2514386162374144e-07,4.249649707056388e-07,0.7072461060086581,-0.706967428906897,2.6319758408012193e-08,5.367542542435283e-08,0.04492757180457449,0.011897566775880731,0.11465027810278709,9.799994733793708
1727685271.236548,-4.2619479485696844e-07,4.2531420701523617e-07,0.7066004070787956,-0.7076127929282495,2.3287327492334298e-07,5.423595326754746e-08,0.050000196260570166,-0.09914159841079839,0.6715882167484221,9.80000378209087
1727685271.2691627,-4.264791985389667e-07,4.249756196993022e-07,0.7060484553969206,-0.7081635253465542,-1.5253445195629132e-08,6.141796158727653e-08,0.05221685126282667,-0.02287111731295778,0.0013208077619758414,9.79999966515426
1727685271.2990797,-4.2735519973826437e-07,4.252213582382681e-07,0.7055115985182134,-0.7086983733267006,8.340352734369052e-09,5.847739029757597e-08,0.04933664387669413,-0.011493201775839597,0.07196681810625315,9.799996554067807
1727685271.348789,-4.2752552798400897e-07,4.245936974506146e-07,0.7048151175095118,-0.7093910417602479,-1.6894608902832918e-08,5.780200667738391e-08,0.04909189578544931,-0.02012885078454402,-0.0002588403236730967,9.799999766422898
1727685271.3797026,-4.2849681674029536e-07,4.247440748444787e-07,0.703992295983262,-0.7102076085172923,-9.065781088125306e-09,9.744703694928307e-08,0.08243795627107231,-0.07181156477334569,0.019363269377271626,9.799998634284506
1727685271.6076508,-4.2876231309019404e-07,4.238483945969226e-07,0.7028187828569676,-0.7113689327367951,-1.799289073643043e-08,1.4849392184921147e-07,0.1362150239687434,-0.4019851351011124,-0.053085977316958785,9.800000543559333
1727685271.6934853,-4.3014069608542756e-07,4.226246481353636e-07,0.7006220707134487,-0.7135325598939655,-1.6824703604137053e-08,1.903711597756514e-07,0.155948477520634,-0.06914779390813026,-0.0031942276918078783,9.799999768412178
1727685271.725365,-4.3104860158063843e-07,4.2151740539584e-07,0.6989897917838674,-0.7151316459097458,-1.6386086711230874e-08,1.8561782792301905e-07,0.1519053711211229,-0.06025087298469771,-0.0013502155141294765,9.799999743646497
1727685272.0010583,-4.3349337105470546e-07,4.2189410919593344e-07,0.6972158204453476,-0.7168612834575143,1.5731000886765775e-07,2.0936144841683913e-07,0.17970574243020426,-0.28849393068418144,0.45436915635350406,9.799997180621178
1727685272.0101547,-4.3456843729489235e-07,4.2055377645065803e-07,0.6952237910704039,-0.7187933502261478,-1.968099835484569e-08,2.2783471158954185e-07,0.1856369370422026,-0.08442863895039428,-0.003848649539503811,9.79999975586654
1727685272.0494492,-4.3612654601599113e-07,4.188611601596409e-07,0.6925760680523891,-0.72134484815567,-1.890492653249059e-08,2.246668736977958e-07,0.18292631850592686,-0.07684423984019952,-0.0007686306070260368,9.799999671983443
1727685272.0810547,-4.371963907665315e-07,4.17515775716518e-07,0.6905819252872519,-0.7232541769434775,-1.634195000979354e-08,2.2651032033325276e-07,0.18485639651979174,-0.08579225175808441,0.004164043155504505,9.799999402192135
1727685272.1610243,-4.381771640055262e-07,4.160674954083777e-07,0.6885722251903719,-0.7251677672759693,-1.921066888385531e-08,2.2680942962658029e-07,0.18501849278573781,-0.08020337403881175,-0.004485120627479806,9.799999831724985
1727685272.1978555,-4.39067148783154e-07,4.134699875861554e-07,0.6855578987952371,-0.728018109252164,-1.6987597696875208e-08,2.56555643370977e-07,0.20965546943311464,-0.09496354626191712,-0.007626149578129357,9.79999989173697
1727685272.4586155,-4.390091839588586e-07,4.1069246433041694e-07,0.6831742550165113,-0.7302553918200627,-5.537638214587271e-08,2.7100583890081724e-07,0.22353110053735237,-0.13482034317735528,-0.129958463999376,9.800005154720164
1727685272.461405,-4.4030899488017757e-07,4.090563428677007e-07,0.6807090469030186,-0.7325538843416385,-1.2065317282933566e-08,2.742954284208715e-07,0.22483997374465733,-0.0950569198980047,-0.0066474402514534745,9.799999843614222
1727685272.4946814,-4.422692454995683e-07,4.0706044497015974e-07,0.6773652766648465,-0.7356468459583,-4.228058158824934e-09,2.812910598960189e-07,0.23133131481237407,-0.11612600842668552,0.012241238067254353,9.79999887120739
1727685272.7876935,-4.4301715409439854e-07,4.048398182464495e-07,0.6748264678325486,-0.7379764483452612,-2.98947355553525e-08,2.785349447304252e-07,0.2283369710183072,-0.08520250742549138,-0.05904699408603119,9.8000022724488
1727685272.7918851,-4.4446435390716383e-07,4.0357864463484306e-07,0.6726974073086143,-0.7399176969095332,-9.698872369723471e-09,2.2930728959733186e-07,0.18766188796422043,-0.04625154619057056,0.004673605217438665,9.799999641371745
1727685272.8208468,-4.4549603790799956e-07,4.021931241715103e-07,0.6706208459657549,-0.7418002972200908,-1.1152144239199797e-08,2.264619506603173e-07,0.18676505131592608,-0.07748533981659221,-0.004470420024800939,9.799999866590316
1727685272.868361,-4.473379650931975e-07,4.0082906764874394e-07,0.667961454102338,-0.7441958719538354,4.759643184539619e-09,2.0749460773700747e-07,0.1692757725779508,-0.019711843710383124,0.05023554058277703,9.799997755457314
1727685272.898694,-4.482415529749726e-07,3.995704653198077e-07,0.6660840387952782,-0.7458767011120604,-1.1957901884414156e-08,2.0309039977639725e-07,0.16784019153940202,-0.06985037493325233,-0.0033975021723541606,9.799999869630197
1727685272.9393892,-4.4821009650144424e-07,3.976477372297804e-07,0.6644777315888444,-0.7473080651392601,-3.969676086617997e-08,1.6498003072992417e-07,0.1348126634223359,0.006253479198039949,-0.07589910808820885,9.800003574430338
1727685273.2097468,-4.4763841089078173e-07,3.950667202245887e-07,0.6626458180114778,-0.7489329208090287,-5.888046396791888e-08,1.329289556836123e-07,0.10866092614971705,0.033109428517210486,-0.13688946777735606,9.800005677059772
1727685273.21832,-4.481740569002865e-07,3.942737173386992e-07,0.6614459215260092,-0.7499928618968664,-5.52158337701059e-09,1.2628114665738663e-07,0.1065042568710045,-0.04162542777744489,-0.0016321353624783826,9.799999902200838
1727685273.252358,-4.485900838101454e-07,3.934380527413366e-07,0.6603220892160291,-0.7509825154376247,-5.492657576522993e-09,1.1728736277602707e-07,0.09903614767231952,-0.03439378339091276,-0.001978289844176602,9.799999955307204
1727685273.3105445,-4.49005602185051e-07,3.9224731209639216e-07,0.658799072813463,-0.752318936129994,-1.3497680660503522e-08,1.2261101351542977e-07,0.1043129943447099,-0.058246154120664355,-0.029841534522650273,9.800001075096459
1727685273.3753293,-4.4956295026875224e-07,3.915116714218037e-07,0.657616611887098,-0.7533527671481526,-3.844564747164972e-09,1.2395195737106766e-07,0.10475921337331631,-0.04261704555562837,-0.001549230063154717,9.799999899197767
1727685273.4093037,-4.4492226095080505e-07,3.862442217497466e-07,0.656457668346604,-0.7543628633943965,-6.90662111081546e-07,1.198538028173748e-07,0.10022592992335219,-0.011322646754754792,-1.9204615101581288,9.80000229640725
1727685273.6583765,-4.4278796276311557e-07,3.8326566547710143e-07,0.6553721017184396,-0.755306168575904,6.474572752032787e-07,1.0818951926525954e-07,0.09378833244401537,0.0002854083075860034,1.7319652760605788,9.800023980418429
1727685273.6720505,-4.4726252294772985e-07,3.858386690395242e-07,0.6541348433701989,-0.7563779522756439,-7.605216659099124e-08,8.928655549301142e-08,0.07420071798674792,0.04186620879498779,-0.21905158087786092,9.799997480837087
1727685273.7020864,-4.476954550869416e-07,3.853964683490631e-07,0.653312205630294,-0.7570886090637816,6.73919812603414e-09,8.338321119486736e-08,0.07226689413174403,-0.025312016469839025,-0.0010846659549078352,9.79999993365272
1727685274.0561898,-4.4737187857053106e-07,3.8431991058376005e-07,0.652415858645605,-0.7578611663011702,-2.0344613036790874e-07,9.405752648092259e-08,0.09220319959077215,-0.3074230516276545,-0.6219040543225025,9.799996471178094
1727685274.0603895,-4.470499300539663e-07,3.823564279955753e-07,0.6506323938633822,-0.7593928417197903,9.55385071613428e-09,1.4039187111675112e-07,0.12004141336582566,-0.0484941385540336,-0.010119369971637104,9.800000247057971
1727685274.0777054,-4.476329055860816e-07,3.8148090972508505e-07,0.6492886775482588,-0.7605420522280718,4.821596586278031e-09,1.3674389210504712e-07,0.11631290601162737,-0.029700173154490177,-0.02120753539552389,9.800000859378168
1727685274.1088352,-4.484269752001666e-07,3.8082395776600276e-07,0.6479639978488111,-0.761670964059573,1.2095741808995167e-08,1.3584229169182382e-07,0.1159974338552261,-0.04069679156206878,-0.0017902527569614044,9.79999991995758
1727685274.145791,-4.4948313436702473e-07,3.799464764133954e-07,0.6461953139076075,-0.763172075146557,1.1637404070995785e-08,1.359031433887564e-07,0.11599053848033321,-0.04093837709024964,-0.0017674997751602364,9.799999920808858
1727685274.1813853,-4.5062065639449855e-07,3.7959627066866285e-07,0.6448939603282695,-0.7642720588453911,1.1984258531664237e-08,1.3295621483091028e-07,0.11331179203717358,-0.03819643115211864,0.0031730638171510316,9.799999717190286
1727685274.4892192,-4.5035084425454526e-07,3.7806197753238875e-07,0.6436763054250408,-0.7652978595514452,-2.597146990438046e-07,1.2196049994761334e-07,0.09190417822889026,0.2573221602708351,-0.7080670582453295,9.799995465679295
1727685274.4936402,-4.49339340858445e-07,3.7641171205149673e-07,0.6430173416340683,-0.7658516164098057,-2.22088024891542e-08,5.798581564273377e-08,0.05073909563652679,0.0047372024613147505,-0.1024500990176156,9.800002192133215
1727685274.5119956,-4.499036093443841e-07,3.761825522916423e-07,0.6422484576245878,-0.7664965222872796,1.5540444519969986e-08,5.620988814945194e-08,0.05012106841702433,-0.01680254241108596,-0.00033591940468722666,9.799999929823409
1727685274.5423677,-4.5033803781548316e-07,3.760206268013914e-07,0.6416720491624622,-0.7669791270453861,1.5094957825522585e-08,5.629893549822291e-08,0.050117431749918215,-0.016930208516018484,-0.0003135863650695828,9.799999930177236
1727685274.6300397,-4.509463221116101e-07,3.759594355865751e-07,0.6410253763603356,-0.7675196849995088,1.4962387556937146e-08,6.433731133803369e-08,0.056912756669399496,-0.02457906693467911,0.0007965572918784717,9.799999845882555
1727685274.6663055,-4.5211461824676967e-07,3.7612654657085964e-07,0.6401682524000456,-0.7682347353633038,3.049205304847213e-08,6.203794838725816e-08,0.05428529417291783,-0.010285439273168384,0.05090401550219665,9.799997676042045
1727685274.939657,-4.511900503951211e-07,3.7476768600577415e-07,0.6396073462487015,-0.7687017904391465,-3.430366004892778e-07,5.337455644055162e-08,0.03779270418957858,0.20817677911657562,-0.9528566139763543,9.79999407117464
1727685274.9439178,-4.507736302841027e-07,3.7416459187951125e-07,0.639377791499457,-0.7688927361712644,1.3534512817232434e-08,1.8415748395864603e-08,0.0177768050858829,0.00975035769794305,-0.006758755691827516,9.80000033589113
1727685274.9648037,-4.5111469300841024e-07,3.7426269782962934e-07,0.6391104966133571,-0.7691149284198588,1.612517437318026e-08,1.7246665793059794e-08,0.017339841216523582,-0.005605851467998677,-1.4321845931348804e-05,9.799999940328215
1727685275.248152,-4.4979482776264665e-07,3.7301840366993505e-07,0.63896064615023,-0.7692394248027976,-3.938595585375118e-07,1.1020139805119203e-08,0.004288476843592685,0.17604881355002377,-1.1103036247878462,9.799993181158072
1727685275.2500856,-4.4940226197722523e-07,3.727924693926358e-07,0.6390521939236964,-0.7691633723994982,1.8128662886989137e-08,-1.4108258952151955e-08,-0.009388978446616408,0.013611166196444407,-0.005578431213059066,9.800000258596906
1727685275.2758312,-4.49096119225784e-07,3.7271454969714384e-07,0.6391788078053938,-0.7690581588229428,-9.742470630325789e-08,-1.6793245613032895e-08,-0.013653048537505529,0.05864396950956802,-0.31818495573843186,9.799998004299024
1727685275.3171074,-4.4894695156862636e-07,3.729031088035148e-07,0.6394353779772182,-0.7688448461105735,-4.2557077904288566e-08,-2.4596120338629183e-08,-0.02175364378014236,0.0970287851261889,-0.1626484907322106,9.799998904733036
1727685275.347229,-4.4898381084372464e-07,3.7326914546621665e-07,0.6397118362382872,-0.7686148362972821,2.0590474658632683e-08,-3.193832690248731e-08,-0.024239832481743464,0.009410005065434103,-0.0002804667135680321,9.799999968901899
1727685275.3887506,-4.478749861083111e-07,3.727092718189679e-07,0.6400373079587653,-0.7683438321614595,-1.491356650773393e-08,-3.8827050350136716e-08,-0.03093503712243785,0.029038416944304226,-0.10200294041608253,9.800004657065848
1727685275.6750941,-4.4604370548003886e-07,3.717463118751747e-07,0.6405526288016503,-0.7679142723865457,-4.66850667867194e-07,-4.4160476941321187e-08,-0.03991461787394725,0.12702960449689907,-1.3402838255165477,9.799991872088983
1727685275.6888442,-4.455226118189906e-07,3.7189772372287506e-07,0.64111374746792,-0.7674458696268442,2.5511415208628436e-08,-6.137381820001138e-08,-0.049776699609532085,0.021764330068127693,-0.006035688414851145,9.80000025470722
1727685275.7058992,-4.4536636500867803e-07,3.7240834300956693e-07,0.6416868266355416,-0.766966763635864,2.6840262124834318e-08,-6.168341848712578e-08,-0.04980005313244058,0.014022040933741228,-0.002301480210158182,9.80000004128182
1727685275.760037,-4.4531097257310857e-07,3.7321399142762317e-07,0.64245719447119,-0.7663215730174049,1.4086706725986299e-08,-6.246924940265948e-08,-0.0515702049030771,0.038780338000243185,-0.03129595719725073,9.79999974872225
1727685275.8391323,-4.4454559394001037e-07,3.732637563113551e-07,0.6431072957173556,-0.7657760809758768,2.441232052287688e-08,-6.992041093349281e-08,-0.05717036468530671,0.020133844293251345,-0.00895158759224964,9.80000036527343
1727685275.8727384,-4.4318050794793026e-07,3.728407965253154e-07,0.6437744070984202,-0.7652153375127435,-1.2975540917882183e-08,-7.139139695114223e-08,-0.05866909173357493,0.019800574126989424,-0.11888921570892624,9.800005314165745
1727685276.1064565,-4.4313253777430846e-07,3.735380055373657e-07,0.6444487262240356,-0.7646475261634488,2.9436536848264353e-08,-7.167923903349275e-08,-0.05878133649262584,0.01571773502064193,-0.0007914719409580365,9.799999972560164
1727685276.1098564,-4.430886965477777e-07,3.744837779760252e-07,0.6453472545570474,-0.7638893382129016,2.8384495557288046e-08,-7.16151405498502e-08,-0.05878376553051453,0.01563142231051266,-0.0004711767586621425,9.799999959285067
1727685276.1255672,-4.43044554248213e-07,3.75182399487989e-07,0.6460205681537889,-0.7633200020449605,2.753589269673206e-08,-7.156334565597668e-08,-0.05878377979639515,0.015630918021425654,-0.00047111243421597496,9.799999960505515
1727685276.4371946,-4.429910281868372e-07,3.7587208471044526e-07,0.6466933794933476,-0.7627500723822552,2.671175453443218e-08,-7.151292060956238e-08,-0.058783780102902965,0.01563090814193188,-0.0004711059399718374,9.799999961693185
1727685276.4406312,-4.3251531643893106e-07,3.6790512554085956e-07,0.6475427475704973,-0.7620291267848812,-6.472247730436022e-07,-6.441976487739542e-08,-0.05389831972794617,-0.005694618659628108,-1.9249530317687717,9.800002283457053
1727685276.4651031,-4.249581427157749e-07,3.6210465709897056e-07,0.6481322025834815,-0.7615278379507693,-6.279412879564624e-07,-5.9124277451659864e-08,-0.05044982469014592,-0.00861665603993581,-1.9245712843549239,9.800002243486395
1727685276.4947946,-4.1764744025308674e-07,3.564515392107999e-07,0.6486832708498671,-0.7610584827194401,-6.092288060227097e-07,-5.422794202626454e-08,-0.04718051755540845,-0.011136846352941352,-1.9242025967342484,9.800002204727392
1727685276.5353959,-4.0972080677480084e-07,3.503950424263647e-07,0.6492966882326235,-0.7605352132872327,-2.0103986516305815e-07,-4.139845540586458e-08,-0.025943852440221675,-0.2537969768282464,-0.8915696762160572,9.800008602143391
1727685276.6006591,-4.100266416278156e-07,3.508285311956358e-07,0.6493338025978619,-0.7605035258323984,1.0613114499807938e-07,-2.973086748472913e-09,-0.0005551764685548164,-0.020240441097677465,-0.013685093337895263,9.800000445340924
1727685276.8651645,-4.1124033872426693e-07,3.5189532851574615e-07,0.6493345962460759,-0.7605028481982513,1.0684183445309545e-07,-1.4087673001101497e-09,-1.1868017954702365e-05,-0.00043259532468269157,-8.196941901212547e-05,9.799999952867879
1727685276.8671086,-4.124218931094987e-07,3.529308243586239e-07,0.6493346132105993,-0.7605028337135545,1.0368057379351153e-07,-1.3354248848018233e-09,-2.53672994896306e-07,-9.234339661973672e-06,9.246058828538797e-06,9.799999952713655
1727685276.9063857,-4.1394294375624133e-07,3.5426376810006594e-07,0.6493346135789264,-0.7605028333990672,9.959519526647279e-08,-1.2824873918387137e-09,-1.5048200629563012e-09,-4.2166335295113193e-08,1.069610776764557e-05,9.799999954563464
1727685276.9358218,-4.1504426912426187e-07,3.552288935780035e-07,0.649334613581078,-0.760502833397229,9.66375336497046e-08,-1.2441914952954914e-09,-3.2256959163816105e-11,1.1884026989337375e-08,1.0731817363746547e-05,9.799999955923456
1727685277.0170572,-4.1611287960989686e-07,3.56165351816271e-07,0.6493346135811243,-0.7605028333971885,9.376716862902632e-08,-1.2072439906898048e-09,-7.795862565764622e-13,1.3378965417005779e-08,1.0759098391287408e-05,9.799999957241265
1727685277.0584,-4.1749939695763206e-07,3.573606538848336e-07,0.6494403735383456,-0.7604125204243233,9.039183010709831e-08,-1.3466270053101197e-08,-0.027814817023128914,0.3894674796451332,0.054001613789175805,9.799999941903652
1727685277.2859995,-4.1822844899892426e-07,3.5855218574989873e-07,0.6503667645185656,-0.7596203470216876,8.761276070084347e-08,-1.0286233849082906e-07,-0.10734398493752685,0.36248646733643997,0.048066124462789135,9.79999990541342
1727685277.2882662,-4.184992856082156e-07,3.60214527487961e-07,0.6521545268730646,-0.7580860591507169,8.49662159370773e-08,-1.8640417824630775e-07,-0.18132041066180551,0.3376071771302651,0.03978193913551631,9.799999915773622
1727685277.3202806,-4.183994851506957e-07,3.6293431706707667e-07,0.6550507277889842,-0.7555849019288404,8.255408647153725e-08,-2.150260407502197e-07,-0.19232746409863793,0.0031291422341418744,-0.004796094876982469,9.799999965858994
1727685277.6307223,-4.1824483585925106e-07,3.649622047289414e-07,0.6572284445214365,-0.7536914300372699,8.007478546966785e-08,-2.1561594711874056e-07,-0.19239176455538456,0.000786210845992256,-0.005164388804285575,9.799999969466644
1727685277.6330435,-4.1793757990733894e-07,3.670780919513905e-07,0.6599162321993204,-0.751339182047325,7.668652480756924e-08,-2.7743370069949457e-07,-0.2604304043374776,0.3112541834497089,0.027976031200246308,9.799999932438354
1727685277.639078,-4.1721885895142326e-07,3.695965096942345e-07,0.6633386574248515,-0.7483193339514118,7.444801917423941e-08,-3.518000844577245e-07,-0.3262107297389373,0.30904002107594386,0.018643625326737502,9.79999994467891
1727685277.669016,-4.158554727834954e-07,3.7353318872863427e-07,0.6685030704269246,-0.7437093819695041,7.547736777031331e-08,-3.9263348440096917e-07,-0.34929252909221015,0.014525783982512431,-0.014909758623862911,9.799999971564874
1727685277.6989884,-4.146815053697229e-07,3.7648267230761717e-07,0.6723953952044832,-0.7401921591772591,7.306596382739766e-08,-3.944578039598068e-07,-0.34981602380570165,0.003157383199891982,-0.017015346477497067,9.799999986544368
1727685277.7411435,-4.1345475086310197e-07,3.7938727199150893e-07,0.6763511263038703,-0.7365793602505918,6.68124344273713e-08,-4.0540982360396183e-07,-0.3717704538018537,0.3097831976825616,0.011256513669593512,9.79999990271704
1727685278.01654,-4.115531462372929e-07,3.835353377285922e-07,0.6820102235245414,-0.731342638581731,6.90902622078865e-08,-4.3849168428543043e-07,-0.3876960374338659,0.011332766153719948,-0.01974508628009542,9.79999998823105
1727685278.018325,-4.1014649962229595e-07,3.863935272030685e-07,0.6854439517209633,-0.7281253937673319,6.11929550236814e-08,-3.380438203372143e-07,-0.27669813926418413,-0.5165652800824848,-0.0924629227208188,9.800000077282096
1727685278.0425336,-4.0935792702829376e-07,3.885404952944741e-07,0.6876611721721397,-0.726031757078518,5.938153002207554e-08,-2.135276905770304e-07,-0.16719376517539225,-0.5008974041378105,-0.07772872234814814,9.800000063037633
1727685278.0835686,-4.0924670122725194e-07,3.9034574431122263e-07,0.6888502433279676,-0.724903677923267,5.7252919367430743e-08,-5.865835638697936e-08,-0.032465646993725596,-0.4543371826938749,-0.06367160129916886,9.800000048261545
1727685278.155798,-4.098118462596126e-07,3.9109715954762805e-07,0.688895620809234,-0.7248605546100153,5.604921864323182e-08,-3.1380793636168597e-09,-0.0008242905844203629,-0.025487387212844034,-0.002849421713849199,9.799999951878641
1727685278.1921182,-4.1040159971744167e-07,3.916689742982049e-07,0.6888967438370038,-0.7248594873011263,5.420823451708241e-08,-3.5702199254584587e-10,-1.7618381859359664e-05,-0.000642174608987525,-7.97595320876697e-05,9.79999997534279
1727685278.218525,-4.1083988661359173e-07,3.9237050608682643e-07,0.6894919943740554,-0.7242933036372522,5.2755210789824487e-08,-7.581998353871493e-08,-0.08148759356607971,0.37123113216351783,0.05025281108639746,9.79999991651618
1727685278.4620013,-4.1066010759304225e-07,3.940488165234893e-07,0.6915844157006672,-0.7222956430435136,5.0514165225296385e-08,-1.9182791004435576e-07,-0.1813353209242824,0.33760157085749454,0.03970673613718814,9.799999929623905
1727685278.479466,-4.1010032042464726e-07,3.9576585032601164e-07,0.6936699950677674,-0.7202929528617913,5.006589162465362e-08,-2.2218564148030905e-07,-0.1941204957215534,0.01092770352208728,-0.0035780447662345704,9.799999967813601
1727685278.5350204,-4.094606868688819e-07,3.9748802661177403e-07,0.6957670380869188,-0.7182675189032498,4.847132153251791e-08,-2.2321672448501428e-07,-0.19439384564406484,0.0009680319710148555,-0.005248328893922064,9.799999983804963
1727685278.8079686,-4.0844162595687977e-07,3.998707941210921e-07,0.6990439666370345,-0.7150786898712852,4.54504201621265e-08,-2.869469463988283e-07,-0.26229675024507626,0.3106351061669057,0.02759350287594014,9.79999994567128
1727685278.8293276,-4.072103273128433e-07,4.020800314522718e-07,0.7023204103097456,-0.7118609704584338,4.40843991446732e-08,-3.630440505896122e-07,-0.32807692904634095,0.3090611818175043,0.01829368068748299,9.799999957776695
1727685278.861628,-4.056998838961229e-07,4.0471862964782963e-07,0.7060091480619122,-0.7082027131073168,4.7327558380854935e-08,-4.0139008607069005e-07,-0.3495864415366472,0.03233053502464536,-0.010909581242662936,9.79999994422678
1727685278.900277,-4.0346530764722976e-07,4.082315045077399e-07,0.7109597277121017,-0.7032327250428586,4.477252996158357e-08,-4.048827764191795e-07,-0.3509304279740972,0.0031502876468862615,-0.017127440810603103,9.799999999751135
1727685278.961778,-4.0174209770922474e-07,4.108229809293302e-07,0.7147285879259138,-0.6994019199295203,3.930355412970127e-08,-4.1615809620487796e-07,-0.37288394460735386,0.3098006731333566,0.010996806109611264,9.799999913963209
1727685278.99245,-3.998376343678928e-07,4.1361793000425e-07,0.7187709612826618,-0.6952469383006783,4.3276871200852495e-08,-4.485555094491596e-07,-0.38887432837796504,0.025235355594856842,-0.017506072243647485,9.799999986698461
1727685279.2208183,-3.9776209577389934e-07,4.164230714221338e-07,0.7230478423776309,-0.6907979571717919,3.6751249106427e-08,-4.869853685782568e-07,-0.43334659899573613,0.3107022988435481,-0.0003689059414925535,9.799999982294285
1727685279.2478297,-3.944564217995351e-07,4.207769624431146e-07,0.7297369920277343,-0.6837279594005071,7.013108431029801e-08,-5.861972453633136e-07,-0.5150122480021624,0.22705638414364623,0.06577991849502499,9.80000058557905
1727685279.276895,-3.9160304748183144e-07,4.243764028312806e-07,0.7350802420362105,-0.6779801160562549,4.356435501555165e-08,-6.080441349342597e-07,-0.5246395816037625,0.01882330466662589,-0.03564063057268071,9.799999999520432
1727685279.3710754,-3.886440844792062e-07,4.279443944734499e-07,0.7403978117476696,-0.6721689373653978,4.191388578477842e-08,-6.099005688834002e-07,-0.5252186627613148,0.0062599588255174456,-0.03848911647382613,9.800000026961033
1727685279.4143353,-3.846024344879946e-07,4.326078328162084e-07,0.7474907759914775,-0.6642721880429163,3.0687089506008556e-08,-6.217201197675194e-07,-0.5471763794440948,0.31301098568263286,-0.026495733226149946,9.799999852291762
1727685279.4429765,-3.8136853337690547e-07,4.3633836782082607e-07,0.753114279975994,-0.6578897181867979,4.114038148365285e-08,-6.626249258766034e-07,-0.5706345859775381,0.03904762192020875,-0.03989337402511621,9.800000001229119
1727685279.6625597,-3.7786286216397274e-07,4.400165368147692e-07,0.7589409195168154,-0.6511594894360629,2.8405826669749782e-08,-7.023619718220365e-07,-0.6153899178695597,0.3144000368777955,-0.045116829239311235,9.800000037639917
1727685279.678966,-3.724423261299057e-07,4.4533746109453887e-07,0.7674107429123919,-0.6411557935964656,2.662091573691159e-08,-7.750341580734498e-07,-0.6440065452599993,-0.5110556077896513,-0.17565695666459288,9.800000058695888
1727685279.7097926,-3.688703042693913e-07,4.495626534181685e-07,0.7731401295122241,-0.634235240378113,4.1302207352748894e-08,-6.923271919027934e-07,-0.588667504254596,-0.10064712084159183,-0.05313579183661201,9.799999822562029
1727685279.9982471,-3.692632615948612e-07,4.582227487219616e-07,0.7786017816751236,-0.6275183388331986,6.760866912134367e-07,-6.756254913461366e-07,-0.5696587759795829,-0.09665515831664498,1.733436411612404,9.799997816755697
1727685280.0089939,-3.6928084486111913e-07,4.663706532803249e-07,0.7838640855136713,-0.6209324403197677,1.2566627741901252e-07,-6.730929328051556e-07,-0.561547500226901,0.0327834788572776,0.274515159697514,9.799992666243517
1727685280.0512547,-3.639218955850308e-07,4.711381315853004e-07,0.7914122480897636,-0.6112827934541851,4.523431183153242e-08,-7.554636532159674e-07,-0.6351315644314542,0.18614195103565143,0.05637687522893451,9.799999830865275
1727685280.081555,-3.5741913529855785e-07,4.721481701162262e-07,0.7972215267289502,-0.6036868702561046,-6.624672750002621e-07,-7.640289715535762e-07,-0.6332552070541947,-0.03595588265158791,-1.9364531314739704,9.799988936394584
1727685280.1253867,-3.501405554875937e-07,4.719698350136618e-07,0.8030294918320675,-0.5959392882228743,-2.4528514797994954e-07,-7.689052942957353e-07,-0.6548495143841976,0.1647428824712848,-0.7895879821698628,9.80000097067768
1727685280.1685927,-3.4193944151710365e-07,4.7423379614219575e-07,0.811148848202206,-0.5848397610114179,-1.220408870500615e-07,-8.239198895450652e-07,-0.7097352659721607,0.22992394712210185,-0.47418894415446977,9.800000684160768
1727685280.4009163,-3.364964424050948e-07,4.776206649131064e-07,0.8176488760981855,-0.5757172182721589,1.9322227110823384e-08,-8.866443004121386e-07,-0.7686871167688515,0.3197017405562377,-0.09504447048570229,9.800000100049527
1727685280.4111223,-3.3110161359567287e-07,4.820208375141536e-07,0.8245200668501158,-0.5658327132299249,4.242028201492084e-08,-9.480839259385679e-07,-0.8114511604746453,0.0950618737205939,-0.07799378584873387,9.800000008194337
1727685280.4513514,-3.23610434620386e-07,4.880518848464593e-07,0.8336291871129133,-0.5523245227156949,4.0163483346907e-08,-9.574333664617232e-07,-0.8151419680122202,0.014999858899203135,-0.09276631914133565,9.800000095282018
1727685280.5222132,-3.1789883617736507e-07,4.924883017779809e-07,0.8403206261825281,-0.5420897021820836,3.892258120951664e-08,-9.584931603963847e-07,-0.8152256660482167,0.01318284330407695,-0.09302878366575484,9.800000096054243
1727685280.5569534,-3.1211856995412334e-07,4.968428056937136e-07,0.8468865494498631,-0.5317736100640574,3.770505368740502e-08,-9.593528057276634e-07,-0.8152306995463704,0.013073554868225317,-0.09304389756467224,9.800000096541954
1727685280.585053,-3.0610695474987826e-07,5.009419917255092e-07,0.853497191057156,-0.5210974427659377,1.3492263109885254e-08,-9.971537025997943e-07,-0.8590607555852658,0.321327501322528,-0.12975761038803818,9.800000143248807
1727685280.7683527,-2.973389355670713e-07,5.064833925255412e-07,0.8624308727634443,-0.5061748607982608,1.2185404142385467e-08,-1.0003536658082737e-06,-0.8288236608694834,-0.5075417365967247,-0.24203782819094039,9.800000279670062
1727685280.7787423,-2.913324974920249e-07,5.101682408322683e-07,0.8681061764570481,-0.49637855150759613,1.153310673367457e-08,-8.692998665186597e-07,-0.7177461784150289,-0.5122222570100421,-0.2004759070762131,9.800000231172307
1727685280.8203905,-2.8614599860926666e-07,5.132992261067094e-07,0.872858413497553,-0.48797355459716174,1.1035653359980882e-08,-7.382708572075473e-07,-0.6066773399973816,-0.5155368914389993,-0.16469973684329225,9.800000189465488
1727685281.0947332,-2.8053147987599137e-07,5.166566841334208e-07,0.8778298742321307,-0.478972558614015,1.0595222901257357e-08,-5.635961493047343e-07,-0.4586163884147151,-0.5182228174708566,-0.12601758902148924,9.800000144383596
1727685281.0980802,-2.7731137538350983e-07,5.185892883205294e-07,0.8805784789503145,-0.47390035071648196,1.0423819173098091e-08,-4.32606248410493e-07,-0.3476025557793585,-0.5191831933245946,-0.10377853944481158,9.80000011850644
1727685281.1154516,-2.7495042412252635e-07,5.200383612118345e-07,0.8825160298486615,-0.47028231633754874,1.0380212309306765e-08,-3.016248552903274e-07,-0.2366204646717043,-0.5194107988309326,-0.08734739024400193,9.800000099450962
1727685281.1560738,-2.7313539129636394e-07,5.212458133320423e-07,0.8838974356608132,-0.4676807920279513,1.0520849086722473e-08,-1.3308090101075945e-07,-0.09541354364452737,-0.47720433024108266,-0.06893959969083668,9.800000079114678
1727685281.2215059,-2.7338765926862916e-07,5.229491906805248e-07,0.8841507574440299,-0.46720171030380403,1.9734965732292255e-07,-2.7509769710860836e-08,-0.011480746590700742,-0.3245493484534969,0.47543811696268806,9.800001033010876
1727685281.2542906,-2.7315949810091145e-07,5.232076602914139e-07,0.8846228588093251,-0.466307192386809,7.654044414414613e-09,-9.245387954389629e-08,-0.09415481510113585,0.3668348185982898,0.048774012624223304,9.799999933662843
1727685281.5108275,-2.738325433314723e-07,5.267023872505146e-07,0.8855630939485382,-0.4645191133160616,6.656783020762166e-07,-1.6792013692721187e-07,-0.13963428780566653,-0.07164735006814224,1.8116857105583453,9.800010793710118
1727685281.5303352,-2.780764725230475e-07,5.382990510901822e-07,0.8867794518414603,-0.46219282100806386,5.919646285927939e-07,-1.5469214545410317e-07,-0.12603321255074307,-0.04389366014707181,1.6804884156899969,9.799997558262316
1727685281.557512,-2.786197992945587e-07,5.414732512882293e-07,0.8873806079246528,-0.461037587056525,1.7064356061192603e-07,-9.341971068905515e-08,-0.06589966200817395,-0.28495330693545834,0.5103800959960945,9.7999990453659
1727685281.652811,-2.786377610512627e-07,5.424603160863007e-07,0.8876437887923379,-0.46053067673935844,-2.244484826607149e-08,-4.091719464572253e-08,-0.033235985716238786,-0.032250152945235096,0.02091547632334413,9.799998837765235
1727685281.6965206,-2.786750954265504e-07,5.429676991257361e-07,0.8877621575894776,-0.46030245659968305,-3.225832411996867e-08,-1.1828994781127267e-08,-0.010837536699824098,-0.003546741135829681,0.0007874720329170137,9.799999938595883
1727685281.7348716,-2.798552651934486e-07,5.453448605428304e-07,0.8877951963405247,-0.4602387308281577,-2.5387425879415236e-08,-3.09926026795315e-09,-0.003535760798847161,-0.008754261059962397,0.03366402429869948,9.799998430895991
1727685281.9612968,-2.810299241569304e-07,5.476321148050714e-07,0.8878177588839294,-0.4601952053313223,5.873093560986265e-07,-2.99705026805245e-09,-0.0031554365567284647,-0.00023963519367580397,1.7303908631610756,9.800010180094489
1727685281.968534,-2.8424802594890947e-07,5.536979280819997e-07,0.8876892870430472,-0.460442971136078,1.364845897428886e-07,3.6484904226937194e-08,0.03781576962412538,-0.267017945442307,0.4948995388539513,9.799998302679183
1727685281.9938495,-2.852196847503652e-07,5.54452270576051e-07,0.8872659383907477,-0.4612582298140565,-4.281270868584697e-08,8.44538518607937e-08,0.06696115082843554,-0.05600399329099316,0.037780085498724685,9.79999802408417
1727685282.297392,-2.838267408915763e-07,5.503033004271346e-07,0.8867989248159104,-0.462155457551852,-7.506306815541417e-07,8.754555378782143e-08,0.0664382089980227,0.0056591603375369,-1.9198727820287806,9.799988709803742
1727685282.302571,-2.7929922926160165e-07,5.402152011528973e-07,0.8863596242085527,-0.4629974260970606,-7.283219160397999e-07,7.983303346157312e-08,0.061777160099098886,0.009191651773586211,-1.9197315248387943,9.80000247746802
1727685282.3317432,-2.7340439269852006e-07,5.272641592878423e-07,0.8858210212205455,-0.46402706641254987,-6.995664442783183e-07,7.048102799913418e-08,0.055948164992810294,0.013069850759963213,-1.919548717870162,9.800002417088058
1727685282.358451,-2.720167407933249e-07,5.238132448535379e-07,0.8857100760813412,-0.4642387975251918,-2.0330116491964886e-07,8.981258735968057e-09,-0.005912285014104571,0.3063633062384609,-0.5376628922651207,9.800001045130003
1727685282.4073048,-2.7056955723632627e-07,5.214931824954506e-07,0.8860455420982256,-0.4635982067777187,-1.612825933548115e-07,-6.660186937101408e-08,-0.06798553155384583,0.2668542841718833,-0.4432467445370876,9.800001067439819
1727685282.4510868,-2.686848702577277e-07,5.194252218673825e-07,0.8864684675608346,-0.46278899729790823,-1.8602206587974202e-07,-2.4130456826883845e-08,-0.008919458254391917,-0.3163543719751445,-0.6048642428140267,9.800000300302424
1727685282.6735826,-2.687230268436614e-07,5.195244178786507e-07,0.8865416919221623,-0.4626487095880064,1.874142754525068e-08,-1.4002866823037721e-08,-0.028485848871930033,0.389239167780723,0.0534411885861057,9.800000060467479
1727685282.6883237,-2.684531371271916e-07,5.19974634478508e-07,0.8871093882799381,-0.46155924129547177,1.785652978568e-08,-1.0886102669404524e-07,-0.10796828387847537,0.362276806048965,0.04752083335005657,9.799999935801791
1727685282.726867,-2.671492090673713e-07,5.210788430054742e-07,0.8886563874238372,-0.458573685562606,2.3022030981948165e-08,-2.222277870991987e-07,-0.19955069206656237,0.24786743375990256,0.04248437009892177,9.80000005716194
1727685282.7868834,-2.656848111291822e-07,5.221398152441773e-07,0.8900655899047979,-0.4558324754414509,1.7499653662661896e-08,-2.415977348804619e-07,-0.20618622017075144,0.0061273539622807086,-0.0051523897765072485,9.799999997284983
1727685282.8188007,-2.641850761209467e-07,5.231985915332657e-07,0.8914719881059996,-0.45307581531350005,1.694124253261291e-08,-2.421121396176185e-07,-0.20632808272320544,0.0009582415746704907,-0.005932978126710469,9.80000000147684
1727685282.8485081,-2.626555894693779e-07,5.242599249780938e-07,0.8929219633153986,-0.45021146967689524,1.662312512048597e-08,-2.556332274496393e-07,-0.219285926691466,0.040362568548628006,-0.0011309820756960345,9.799999985260426
1727685283.0682166,-2.604942261933859e-07,5.257042201322772e-07,0.8949469025037001,-0.44617265906674336,1.4356997654328723e-08,-2.705556879732908e-07,-0.24290676980180223,0.31709666115866597,0.030429557370136785,9.79999995687835
1727685283.0725775,-2.585128010361946e-07,5.269267963535311e-07,0.8968584384316477,-0.4423176928561663,1.3771254596251644e-08,-3.488224506633212e-07,-0.3087853446497125,0.308860889397633,0.02079519212411024,9.799999969431209
1727685283.1001155,-2.560368810189183e-07,5.284791036860682e-07,0.8991764940410654,-0.4375861430206323,3.2768117098888423e-08,-4.2446261821534574e-07,-0.37042615440709237,0.2514955864787138,0.0570476934100745,9.80000030725634
1727685283.4312382,-2.5359703727560556e-07,5.337056711799212e-07,0.902459723861148,-0.43077424111489193,6.707834777909677e-07,-4.4607039525004415e-07,-0.3736528898258509,-0.1081906726304796,1.77779694631103,9.800010776151423
1727685283.435622,-2.5483765078121856e-07,5.440374014839609e-07,0.9047644516385986,-0.42591229971761213,6.508121530089336e-07,-4.2788071664201005e-07,-0.3512685895842772,-0.08688405390689624,1.781843639071172,9.799997726939683
1727685283.4626844,-2.542514495020679e-07,5.501373360314999e-07,0.9067989600047794,-0.42156333585107153,2.2156921119003347e-07,-3.7864293503189647e-07,-0.29749513736699057,-0.29858120255847265,0.6097776652340265,9.799997820021723
1727685283.506693,-2.529437843650977e-07,5.550637690229039e-07,0.9087950874656265,-0.41724272192330913,1.8774426573289452e-07,-2.644160458047548e-07,-0.2026701388322643,-0.2988528065616648,0.5504111361114091,9.799999218885626
1727685283.6016572,-2.524477420740342e-07,5.58012300630008e-07,0.9097678097410342,-0.4151174922339772,1.7035269794403403e-07,-1.7906769602347772e-07,-0.13340316587348308,-0.2896042088086694,0.5237931853382773,9.799999341895653
1727685283.6308465,-2.524006676516886e-07,5.607727655954737e-07,0.9105637353929432,-0.4133687019923883,7.121354419197949e-08,-1.6233711921878796e-07,-0.13500150374653302,0.11684402232320647,0.3215188576602862,9.79999376779394
1727685283.909169,-2.5102555266933163e-07,5.608203551065809e-07,0.9114132781665144,-0.4114922069509826,-4.0660620159462906e-08,-1.70008460134826e-07,-0.1375993957539386,0.024661683269652835,-0.0014450865275157233,9.799999969591855
1727685283.9124649,-2.4360830386462437e-07,5.482945151346666e-07,0.9124806076365671,-0.4091199587979559,-7.126695932055841e-07,-1.530638473634298e-07,-0.12565152932450419,-0.026143471197723943,-1.9310450118856064,9.80000245885544
1727685283.9296887,-2.38599948290747e-07,5.397752588551055e-07,0.9132037615089158,-0.40750323920874415,-5.611146139255901e-07,-1.3679406384172016e-07,-0.11142425821011111,-0.11371623950617472,-1.579772220188251,9.80000456481647
1727685283.9601305,-2.3644297181959138e-07,5.369054343998974e-07,0.9136178360760683,-0.4065740395098265,-2.0389168506168132e-07,-6.665486150015892e-08,-0.0450097267171405,-0.31865118163771583,-0.6442237421116758,9.800001058825895
1727685284.0612245,-2.4109714682489905e-07,5.486182893127287e-07,0.9139610089607877,-0.4058020134240585,6.201066708310605e-07,-4.882057889244343e-08,-0.04064461836201049,-0.011335304548457334,1.7284859538767925,9.799997803285194
1727685284.092323,-2.4371372270601033e-07,5.553945585478402e-07,0.914162577129433,-0.40534773044351124,2.2917866728685208e-07,-3.644822627065045e-08,-0.021131910427119815,-0.24029583632651308,0.6645830676125912,9.799991705668928
1727685284.3117135,-2.4417275467373946e-07,5.564943526075756e-07,0.9141156124118828,-0.4054536313124831,-1.2621765074607926e-08,1.6492660399129004e-08,0.014112336967797004,-0.04924104604053912,0.034075707594326106,9.799998182810919
1727685284.3224845,-2.465149004805185e-07,5.61496983057469e-07,0.9141057371168283,-0.40547589493054204,-1.6332967030259168e-08,-7.356542241271962e-09,-0.008638703212471498,0.043340577679862366,0.0670548830736095,9.799997234131952
1727685284.3580089,-2.4716360675835146e-07,5.629794116863826e-07,0.9140988145559277,-0.4054915008074396,-3.422097832542083e-08,3.7889189084300316e-09,0.002296082885294684,-0.008952407248065787,0.0199023989857445,9.799999058440115
1727685284.652817,-2.469553869818219e-07,5.624044619640851e-07,0.9140835820929656,-0.4055258375833967,-4.064413712114358e-08,4.4532410823416835e-09,0.002529010343150148,-0.0006302371399870181,4.370951434735054e-05,9.800000004529378
1727685284.656027,-2.4838500549248576e-07,5.652527135059488e-07,0.9138923853170904,-0.4059565346919021,1.315604566200919e-07,5.181939053032665e-08,0.05084471665744802,-0.274692251339123,0.45272650878704734,9.799999480938933
1727685284.6712897,-2.495608151354848e-07,5.656601774857837e-07,0.9132458366506874,-0.40740893686786456,6.521430458551713e-08,1.0738184712303691e-07,0.08897526836469566,-0.12972833216648474,0.2946106188377784,9.800001674818063
1727685284.7057526,-2.501164766840315e-07,5.647322789895264e-07,0.9126845311987779,-0.4086648339533084,-4.649347837902983e-08,1.1665658444827997e-07,0.09203333065718146,-0.02142714002722134,-0.0006155464865479956,9.79999997217216
1727685284.731701,-2.506525335798507e-07,5.637342365845726e-07,0.9121191394628936,-0.4099252071111139,-4.540460601887739e-08,1.166347872987793e-07,0.09209891077297494,-0.01909227683302508,-0.0011389600788054548,9.800000009625437
1727685284.7968485,-2.516522420790432e-07,5.630519278451414e-07,0.9113473521087476,-0.4116381952686048,9.212596219539982e-08,1.2045295966879176e-07,0.0994645351274765,-0.12144905172971064,0.3608744574084918,9.800002229109712
1727685285.043887,-2.52315131697985e-07,5.621430058172936e-07,0.9107168568742474,-0.41303124168119765,-4.336228818339343e-08,1.2892152701257246e-07,0.1022333315335187,-0.0237345288230316,-0.0006686629511184631,9.799999963651011
1727685285.0474055,-2.553226767655158e-07,5.663418426892717e-07,0.9100182033807315,-0.41456829294498587,1.461519147401759e-07,1.4999034447285015e-07,0.12709351639631397,-0.2561783808214713,0.5151852596744786,9.799996565171009
1727685285.087106,-2.579336270829328e-07,5.674373027226115e-07,0.9087007734153549,-0.4174480858669101,2.61757333864518e-07,2.093300167445502e-07,0.16716481913948544,-0.09892882863478217,0.8635726131547795,9.800004798613653
1727685285.1208978,-2.591755734078503e-07,5.662112404120237e-07,0.9076420995763518,-0.41974494526586525,-5.51025833605799e-08,2.1490902471536323e-07,0.1687780542315837,-0.04526135376031469,-0.0015652446624816326,9.799999905762602
1727685285.2019663,-2.6079409949844447e-07,5.657790295804212e-07,0.9065677672755315,-0.4220602840077112,-2.8422231923495494e-08,2.1752494497148643e-07,0.17109025659919458,-0.05214313339254808,0.07230767645642248,9.799996536412921
1727685285.2310686,-2.619606194221091e-07,5.643346525428763e-07,0.9054805711949933,-0.4243877179985319,-5.482843156038745e-08,2.1775650032454366e-07,0.17127582751592677,-0.04589169348402747,-0.00374493282500912,9.800000005775168
1727685285.476012,-2.576153964116465e-07,5.5006684966721e-07,0.9041028756295185,-0.4273148608205267,-7.265562057752434e-07,1.974296723906992e-07,0.15617775931978625,0.013414835551407116,-1.9207097926079855,9.800002476970887
1727685285.4783528,-2.543405720393775e-07,5.397930114175381e-07,0.9031453245943502,-0.42933497721826686,-7.049645836191558e-07,1.801801753293726e-07,0.14553162774948478,0.021789208504975115,-1.9201518811051406,9.800002431010297
1727685285.4896548,-2.510625553001434e-07,5.298695268803039e-07,0.9022496976012804,-0.43121396449796734,-6.840058031885543e-07,1.6427041572458486e-07,0.1354481883662467,0.028928144257602744,-1.9196698320095853,9.800002386519896
1727685285.8054788,-2.483720287332687e-07,5.207189073253312e-07,0.901255191648901,-0.4332886792031033,-2.1159413010910476e-07,1.1758281022343003e-07,0.08813848364298252,0.31264219522105285,-0.6360868902265101,9.800002933568319
1727685285.8090189,-2.4814315908505235e-07,5.189713035987851e-07,0.9010340191334254,-0.4337484252005248,-1.6640541617588312e-07,2.7458643789737385e-08,0.01085402744436273,0.3162258450697473,-0.5184193819085131,9.800000211737022
1727685285.8307712,-2.4751244948590777e-07,5.178115699480458e-07,0.9011898728046084,-0.4334245184043981,1.6742841664955544e-08,-3.5728472970517585e-08,-0.03360029410400871,0.07221674984959317,-0.056060538701789564,9.800002938283784
1727685285.8699298,-2.474772933079073e-07,5.18689471751737e-07,0.9014964360026045,-0.4327865245987582,3.9118307478062115e-08,-4.144445412360143e-08,-0.03556852165534989,0.0004532131578748677,-0.00013003190662363702,9.799999992778273
1727685285.8998933,-2.4744196563116907e-07,5.193452063244427e-07,0.901727277952749,-0.4323053506441884,3.796060598151866e-08,-4.150168321636534e-08,-0.035580014224200596,3.434760135503808e-05,-0.00016471386193611724,9.799999992089322
1727685285.9644165,-2.474089686655773e-07,5.199817519552929e-07,0.9020160886049903,-0.431702415904084,3.6996044014338637e-08,-5.488885003448363e-08,-0.06254698128728582,0.37765569587237907,0.0512804069153273,9.799999971212259
1727685285.9945762,-2.4701666201706513e-07,5.207810982297897e-07,0.9026098461638609,-0.43045959811313206,3.591534375048017e-08,-1.0952896543437362e-07,-0.09530358336487396,0.02626151630961572,0.0025110861469090713,9.799999979138311
1727685286.2158062,-2.461306988073856e-07,5.2197673498976e-07,0.9037560561403426,-0.4280478839911733,3.4202413600640036e-08,-1.8212353391776615e-07,-0.17060181357881735,0.3412067472900965,0.040689426910707156,9.799999943539715
1727685286.2466366,-2.448404738329047e-07,5.231835060984301e-07,0.905118258928737,-0.4251598962196199,4.040229407586365e-08,-2.5748252574937677e-07,-0.22674372003575324,0.1299341452245005,0.026571384456975242,9.800000088178452
1727685286.2758172,-2.4324244443713377e-07,5.245016007291216e-07,0.9065786534198605,-0.4220369002387087,3.363103219512316e-08,-2.676781646999087e-07,-0.23020709783439064,0.003809564758132293,-0.006973840977263594,9.799999998213474
1727685286.3207233,-2.4107224998674937e-07,5.262321657293032e-07,0.9085127274595846,-0.4178571813952839,3.225822019601354e-08,-2.6813868785656796e-07,-0.23028231353736875,0.0010690926256475093,-0.007411341515219962,9.800000001655112
1727685286.3517177,-2.394351938938691e-07,5.274971630621729e-07,0.9099969724644342,-0.41461489373300164,2.9592254420056555e-08,-2.795335618593898e-07,-0.25260855388182596,0.3138764978090617,0.028859173659868554,9.799999954525891
1727685286.3858752,-2.3748141493498925e-07,5.289195910243948e-07,0.9117459983448502,-0.4107544698500751,3.194662852510692e-08,-3.338526992504695e-07,-0.28801173345120096,0.042628851018120036,-0.004123213041370566,9.799999913914126
1727685286.635529,-2.344718163202671e-07,5.308926812546326e-07,0.9143700179268661,-0.4048795750789187,2.732548722636329e-08,-3.992481242000967e-07,-0.3546035174629277,0.3094581154856695,0.013743391408031293,9.799999976983024
1727685286.6654217,-2.316646197592666e-07,5.326902363376279e-07,0.9167526826159944,-0.3994552777421276,4.9029561758583516e-08,-4.7102067435215813e-07,-0.40992655529691213,0.16358262754731026,0.0457385388731001,9.800000372295841
1727685286.7011116,-2.285230546881928e-07,5.345948487778195e-07,0.919226398222303,-0.393729385251995,3.146945456441698e-08,-4.866969368215403e-07,-0.4168744872617578,0.013107519855395005,-0.0222861777648489,9.800000003135224
1727685286.9591389,-2.2537323718702099e-07,5.3636417869723e-07,0.9214565500270167,-0.3884814363801304,2.3774763691228264e-08,-4.254205789686389e-07,-0.3431437212316294,-0.5157445723503347,-0.10217488539121652,9.800000115817276
1727685286.9744327,-2.2239147828327848e-07,5.381212395065783e-07,0.9233933655333304,-0.38385504098382006,2.295218558467576e-08,-2.5271711200525527e-07,-0.1956400316538413,-0.5106355796327077,-0.08124134170996414,9.800000092500259
1727685287.0057187,-2.2118538270075837e-07,5.389919274568712e-07,0.9241145329278732,-0.3821155977334075,2.2521994932581428e-08,-1.2907053405783023e-07,-0.09133786254922203,-0.4747621022658987,-0.06815659218588901,9.800000077923164
1727685287.035919,-2.2083932820789593e-07,5.395845029337743e-07,0.9242892236871618,-0.38169284899699574,3.825780745990343e-08,-2.1192840395917637e-08,-0.007272391110156658,-0.2616827626508522,0.00849435909074688,9.80000032103916
1727685287.1013484,-2.2098519348797828e-07,5.4000782226009e-07,0.9243484296399092,-0.3815494471518643,2.1617559631615836e-08,-1.4211738972946965e-08,-0.02799955428826693,0.3894048572918538,0.053368688443358764,9.799999973572623
1727685287.133786,-2.2068598834502982e-07,5.404739110916949e-07,0.9248138220799156,-0.38042002377582257,2.0700913697508762e-08,-1.0886387082971288e-07,-0.10751594436803592,0.36242766402638243,0.047470842594894286,9.799999937537756
1727685287.3764358,-2.1986493753689165e-07,5.411359994561471e-07,0.9253773653013,-0.3790471366303711,1.9604307015888128e-08,-9.848762822698974e-08,-0.06538178713517555,-0.46587248470551446,-0.06561344008216344,9.80000007578
1727685287.3928998,-2.197605454561193e-07,5.415981634684946e-07,0.9253072843594554,-0.37921818193618856,1.9320099768071522e-08,4.168947257251039e-08,0.05071235942847907,-0.38068734680563915,-0.052579921324124916,9.800000060177277
1727685287.424299,-2.2047802666482236e-07,5.416090027912974e-07,0.924723753306635,-0.3806389103469944,1.8783923847990207e-08,1.3363225747469796e-07,0.12660782922040958,-0.3264230325868952,-0.049078831606824226,9.80000005231399
1727685287.4566946,-2.2166600877475745e-07,5.414299534666005e-07,0.923954224504744,-0.3825030601439609,1.9464476474439348e-08,1.591187256460194e-07,0.1353809479639429,-0.0066204030832575115,-0.0035811313674515336,9.800000003656272
1727685287.4917903,-2.2288681949071386e-07,5.412286017531011e-07,0.923174598984902,-0.3843808785420037,1.8936714220822314e-08,1.5970734819427188e-07,0.13556850620943278,0.00021663597956867445,-0.0025838725258486117,9.799999999189708
1727685287.5290372,-2.243493468421009e-07,5.410120984782322e-07,0.922293628731983,-0.3864899253538806,1.7911043464980028e-08,1.3246519715199412e-07,0.1121753767044328,0.0053397061787918395,-0.00100482716054589,9.799999994988767
1727685287.7359064,-2.254196309359235e-07,5.408370709092998e-07,0.9214973401221211,-0.3883846703302185,1.6908446646484842e-08,1.7442687824858062e-07,0.16176173786403042,-0.3431342852926861,-0.0526866840703177,9.800000060803036
1727685287.7651696,-2.2701198514209194e-07,5.404290532660109e-07,0.9202756830087073,-0.391270580624858,1.681617648901407e-08,2.5832360302299006e-07,0.23193844860417293,-0.3185910527178019,-0.05571144222864822,9.80000006430435
1727685287.819958,-2.3000995304192116e-07,5.395449612140961e-07,0.9180701153982134,-0.3964180409774096,2.1772380986193757e-08,3.4734421811144364e-07,0.2971822365303269,-0.06432294838057823,-0.01586123882464343,9.800000042742365
1727685288.08845,-2.3258582625599892e-07,5.386972556819914e-07,0.9161542222788269,-0.4008259485117368,1.627637724208605e-08,3.893440988535002e-07,0.3423443331439962,-0.30466708575599,-0.06865178900615566,9.800000078916506
1727685288.1031861,-2.3564617521364735e-07,5.376825244496782e-07,0.9138684406519735,-0.40601043481662613,2.235356660433698e-08,4.532169275128157e-07,0.3877759644731365,-0.08959333401919356,-0.031034599100504656,9.799999979135379
1727685288.1452422,-2.400337010150628e-07,5.361528346467909e-07,0.9106624885903105,-0.4131511005360597,2.0945616149970483e-08,4.626197448911858e-07,0.39193771246056813,0.0009077998410913866,-0.021821971591463894,9.800000022351878
1727685288.1765654,-2.4332742468026976e-07,5.349673445693648e-07,0.9082173192518093,-0.4184988662000312,2.0381913464336956e-08,4.629773939588502e-07,0.3920320804418515,0.002960898174013208,-0.02152773235054729,9.800000021505825
1727685288.2651029,-2.4661159683948676e-07,5.337545337427037e-07,0.9057406249956517,-0.4238324199871225,1.981925527531031e-08,4.6313470364786697e-07,0.39203775956819575,0.003084291551168533,-0.02150953329197614,9.800000021567724
1727685288.2977576,-2.4990724780034816e-07,5.32442544242259e-07,0.9030914264497445,-0.42944833853750075,1.3925352198083559e-08,5.005956755684007e-07,0.4358846280326696,-0.30316182093506167,-0.0856015545717529,9.8000000995835
1727685288.545807,-2.5487131617399323e-07,5.304414022548079e-07,0.8992879137381147,-0.4373571174728984,1.364403279336004e-08,4.916911341948067e-07,0.3954525902054144,0.5213101024652578,0.030986255526351553,9.799999958700875
1727685288.554399,-2.5784738968442756e-07,5.291870261603161e-07,0.8971686243048397,-0.4416881926909694,1.2589487074183351e-08,3.604015124568465e-07,0.2844544953623621,0.5199044426748043,0.04969355362977168,9.799999936943232
1727685288.5746012,-2.601313219005274e-07,5.285123617307139e-07,0.8955219143999359,-0.44501741632112196,1.4651479529806212e-08,2.8929261184299145e-07,0.24293557971768756,0.03683731344822939,4.3292994963955536e-05,9.799999845613428
1727685288.6171348,-2.628136882574775e-07,5.274498176440052e-07,0.8933577143316866,-0.44934618530006154,1.2742171685090168e-08,2.860434375711721e-07,0.24188722698128826,0.0013940834681742543,-0.008145420533337949,9.800000006905435
1727685288.6468494,-2.6481588805350164e-07,5.266393233465617e-07,0.8917215081743346,-0.4525845245464571,1.238698113875258e-08,2.8608055624515715e-07,0.24188110312197147,0.0011708115695014138,-0.008179554239900647,9.80000000724106
1727685288.67855,-2.6676884949107975e-07,5.258397001005183e-07,0.8901383794511977,-0.45569031746093513,1.1855725461722522e-08,2.7395834821955876e-07,0.23127404374713398,0.009511505537442634,-0.006236213975999343,9.800000000775915
1727685288.9496288,-2.6922343840358987e-07,5.248067919730527e-07,0.8882724874441124,-0.45931687106996316,9.554893310100473e-09,2.1122024791332837e-07,0.15895349280254278,0.4990891327076773,0.06136960578361184,9.79999992244077
1727685288.9783268,-2.703084013690267e-07,5.24438076454425e-07,0.8876138265050563,-0.46058842256042865,1.644850236014378e-08,9.728491844654715e-08,0.07187917394431238,0.2582632783709178,0.055019561457282797,9.80000006176586
1727685289.01581,-2.709035522280795e-07,5.242785542122735e-07,0.8871600241711011,-0.4614619068919805,8.38873837734117e-09,7.65660254930065e-08,0.06486242689771937,0.005779711750782929,0.00031118187941679736,9.799999992753648
1727685289.284757,-2.7147426277157336e-07,5.241188576474997e-07,0.8867865710072524,-0.46217916166877404,8.192288807468304e-09,5.9033998438926945e-08,0.03226313271916405,0.4544415940665024,0.061954547053371695,9.799999969237916
1727685289.2904174,-2.714635203149284e-07,5.243151056989888e-07,0.8870956228483821,-0.46158569726854903,1.0215439482487847e-08,-6.722093724245353e-08,-0.061931314897715306,0.14722498405387657,0.027271575148801623,9.799999996405216
1727685289.3121498,-2.7099852373540424e-07,5.246836448438463e-07,0.8875484460555592,-0.46071439732660124,7.183844569148954e-09,-7.870769637888525e-08,-0.06588253437195608,0.0032323272352174294,-0.0001230542964046086,9.799999996563978
1727685289.3515828,-2.7051539708087846e-07,5.250541325712157e-07,0.8880038288778335,-0.4598360576313676,6.948354325257339e-09,-7.893698177413685e-08,-0.0659670080647381,0.00015378403554395522,-0.000587947587703237,9.799999999147538
1727685289.4264343,-2.6986839838541797e-07,5.255428912176194e-07,0.8886097513807699,-0.4586640488970736,6.6655173072378104e-09,-7.892084172108802e-08,-0.06596884251278032,8.692969048053586e-05,-0.0005976944309102633,9.799999999263935
1727685289.4574134,-2.6932693325663905e-07,5.259341663134953e-07,0.8892418801450324,-0.45743729471456407,6.453180852145892e-09,-1.2356121676440061e-07,-0.11782807914661661,0.35895138874293725,0.046516442686787875,9.799999941357218
1727685289.6909053,-2.683372460759421e-07,5.265661780973933e-07,0.8902487275922304,-0.45547470074644714,6.127601560420118e-09,-1.803862436794996e-07,-0.16500759817533736,0.3430911466453596,0.04132424566468242,9.799999958100235
1727685289.6964574,-2.662934169211831e-07,5.277860607713152e-07,0.8922586281192453,-0.4515246843157227,1.3600363995561507e-08,-2.878277057523372e-07,-0.25034495457615663,0.21661271931429177,0.03737332269168569,9.800000099231397
1727685289.7219634,-2.643140862740374e-07,5.289193111444197e-07,0.8939826434614421,-0.44810158802367833,7.54794202272777e-09,-3.0469381717298185e-07,-0.2561298925589092,0.005907988810528507,-0.008476878210273901,9.800000005233494
1727685289.7527618,-2.623044146775149e-07,5.300483978979276e-07,0.895698361880797,-0.4446621689819217,7.280474132424504e-09,-3.0505376571994216e-07,-0.25625357169195667,0.0014017680126679926,-0.00916859344455868,9.800000009250407
1727685289.784513,-2.60288749251404e-07,5.311665891082171e-07,0.8974009504621445,-0.44121597218288655,7.0377772503682865e-09,-3.050610781361718e-07,-0.25625621579809266,0.0013054266184656643,-0.009182567074513806,9.800000009326824
1727685289.8283312,-2.575370381498512e-07,5.326434928960189e-07,0.8997939985149593,-0.43631497823947285,4.593388722627456e-09,-3.4270721139351353e-07,-0.3001106860920369,0.3087984832975547,0.02197008531269524,9.79999997180577
1727685290.0577657,-2.550887857964731e-07,5.339704945429217e-07,0.9019100301668875,-0.4319239487271035,4.28222263715058e-09,-3.9168213707890064e-07,-0.34124473040036923,0.30934507709126113,0.015855730801367336,9.799999917831355
1727685290.088183,-2.52191269286756e-07,5.354201456210534e-07,0.90438994855823,-0.42670694972837264,4.120042282054143e-09,-4.699391878428845e-07,-0.40702013105340773,0.31016703718085964,0.00440029483690239,9.79999999269829
1727685290.1451917,-2.4772218895494007e-07,5.378418215153113e-07,0.9080421505553653,-0.4188788044463896,1.0280185517824903e-08,-5.18224916641166e-07,-0.4358599976590488,0.018891912992705498,-0.023876981411719306,9.800000011327043
1727685290.4344294,-2.455709930298346e-07,5.425756662920623e-07,0.9107490352740734,-0.41296028228752174,6.616868770127602e-07,-5.164292198370486e-07,-0.4289015784361744,-0.10834376447373882,1.7671448380375836,9.800010750242713
1727685290.4368691,-2.4605308819898915e-07,5.530276141002858e-07,0.9132957355501743,-0.4072970653288575,6.419456905827534e-07,-4.992057938433961e-07,-0.4065449908304853,-0.0838780640020053,1.7718351807934247,9.7999977260796
1727685290.480809,-2.4568530872299243e-07,5.644115251175396e-07,0.9164062094680099,-0.40024949624964506,3.0322888166082807e-07,-4.660940904455202e-07,-0.3643132184677275,-0.2274215928126848,0.883207496451726,9.799994646083222
1727685290.511523,-2.436308699343419e-07,5.678217506041052e-07,0.9182881380431074,-0.3959127372653488,6.812567922050994e-08,-3.792400519575941e-07,-0.28770906552768927,-0.3587173351119175,0.24462904063695204,9.799997467775922
1727685290.5807235,-2.4227211347189217e-07,5.710306249250102e-07,0.9196991753696114,-0.392623772617084,1.673851745651608e-07,-2.854821466172082e-07,-0.2149065633483642,-0.2911650862448496,0.5498939786172422,9.799999320492805
1727685290.611051,-2.4035108795073337e-07,5.716532909581068e-07,0.9209420316197698,-0.38969959506736207,-4.6319343868710015e-08,-2.705713082497696e-07,-0.21698018971979682,0.07582398343632302,0.01334346015189056,9.799999353135462
1727685290.862727,-2.3834490417552664e-07,5.740254568234217e-07,0.9226100444879994,-0.38573398321831254,4.314159946134686e-07,-2.671214442481047e-07,-0.2066959200529876,-0.12253115004259876,1.3060110589507463,9.800007860879672
1727685290.8644116,-2.3770304278491138e-07,5.771281337035505e-07,0.923554785738812,-0.38346650145553457,1.5042465681507582e-07,-1.936163134422069e-07,-0.14156734281147057,-0.27855865795467794,0.5335157371921835,9.799999083747583
1727685290.8880982,-2.3736833301306826e-07,5.793405751184686e-07,0.9241220952449999,-0.3820973083909379,1.062191364981946e-07,-1.1235857851652564e-07,-0.0789428429321267,-0.24315863464213142,0.43219223828105463,9.799998947965332
1727685290.9279227,-2.3626220897635258e-07,5.791280135377733e-07,0.9246712372594335,-0.3807664677787648,3.9090991488466665e-08,-8.94156879662692e-08,-0.07013222617283536,-0.008205222143707789,0.27760709064228284,9.800001657240088
1727685290.95937,-2.353274473862946e-07,5.785932394660187e-07,0.9250680207331867,-0.379801470529531,-6.150503590170256e-08,-8.730262775581363e-08,-0.0694911623936231,0.014991184225747889,5.490586985141802e-05,9.799999977672558
1727685290.9950867,-2.3478353975252815e-07,5.788217384659346e-07,0.925364030629131,-0.37907968927049923,-2.9646927089958175e-08,-5.4251822093048016e-08,-0.03965889710270461,-0.09051435414332427,0.07426495360330351,9.799997539202067
1727685291.2730005,-2.3259545358901766e-07,5.746973609327348e-07,0.9256440543814219,-0.3783954077257529,-7.528081787928051e-07,-4.4575303026440293e-08,-0.03618788516576058,-0.0029444655679534875,-1.9237459511676234,9.799988720596472
1727685291.3036976,-2.2812222085108967e-07,5.645705951877542e-07,0.9258410408001891,-0.37791317411497,-7.304055672743048e-07,-4.0912351940370226e-08,-0.03401000862368389,-0.00497053033377774,-1.9234695651349585,9.800002488445363
1727685291.338431,-2.2380401813700575e-07,5.547364611185944e-07,0.9260258626007924,-0.3774600664892918,-7.086431634253673e-07,-3.7525576235936433e-08,-0.0319422903502573,-0.006740114434834758,-1.923190189524972,9.800002442480228
1727685291.5971503,-2.1963455135126232e-07,5.451869972281231e-07,0.9261991740350337,-0.37703460055607074,-6.875271787576785e-07,-3.439767213993036e-08,-0.02998163545880103,-0.008273331099721804,-1.9229164848802134,9.80000239789112
1727685291.6113818,-2.1813882549257768e-07,5.435227948953206e-07,0.9268813080314972,-0.375354553484406,-1.4892248650623933e-07,-1.282551947876963e-07,-0.11976221319991746,0.25685701996316057,-0.422781724497907,9.800000326481479
1727685291.640005,-2.1623753631004812e-07,5.419811870479377e-07,0.927750253074816,-0.37320164511865983,-1.389556879922352e-07,-1.8971975894632146e-07,-0.17197996667310042,0.24240451299269491,-0.41223635874605025,9.800000562456887
1727685291.673632,-2.1432883944483405e-07,5.416014667305496e-07,0.9288566625382373,-0.37043933438282184,8.591136482165608e-09,-2.3672246407244385e-07,-0.2049145014088802,0.04996336696739616,-0.04211091152535115,9.800001926387193
1727685291.7364137,-2.1216327261644202e-07,5.42969123803104e-07,0.9304965532540266,-0.3663006475315552,2.365552024649216e-08,-2.6860781606266777e-07,-0.23080082272809566,0.02089585378648386,-0.004646175477415949,9.799999995741505
1727685291.768203,-2.1040315323208746e-07,5.440370973365674e-07,0.931761704716076,-0.3630704141406344,2.2919502032246276e-08,-2.7030351106336924e-07,-0.23133349356472804,0.0014864812263809869,-0.007421304701960722,9.800000003817948
1727685291.9989424,-2.0863236913131697e-07,5.450902139740387e-07,0.9330160027082535,-0.359834876978277,2.2214667458940418e-08,-2.7048428019937365e-07,-0.2313448813495584,0.0010715371266933691,-0.0074809814146658375,9.800000004144946
1727685292.0047708,-2.0590919209283074e-07,5.465650820257208e-07,0.9350627835592382,-0.3544821445462497,1.9494205324931664e-08,-3.5958208585371174e-07,-0.3194260358341233,0.30898517542659293,0.019199010933048263,9.799999972004459
1727685292.0310278,-2.0325372678828898e-07,5.479863072023751e-07,0.9369760471976196,-0.3493935989361885,3.967155174155855e-08,-4.357413006048561e-07,-0.382642113521625,0.27370945558024823,0.06170810012886876,9.800000331281835
1727685292.3230636,-2.0017276499336437e-07,5.495316939927456e-07,0.9390173670596518,-0.3438697200394611,2.3376063046378244e-08,-4.6190262091690263e-07,-0.394367506926681,0.019392564366941353,-0.018843998907406494,9.800000001269536
1727685292.3248203,-1.968294549592857e-07,5.510268939384694e-07,0.9412574071720294,-0.337689936840656,1.716176756550885e-08,-5.25725348365803e-07,-0.46014070858683065,0.31109282284374873,-0.00635658522111373,9.800000002368092
1727685292.348296,-1.9169330858459684e-07,5.534743065171681e-07,0.9445190634850148,-0.32845660095825074,2.4861987517732194e-08,-5.802524875703648e-07,-0.49445134790196743,0.02331647412652071,-0.030498595619932414,9.800000003560422
1727685292.3793344,-1.8767186693988513e-07,5.552426665897774e-07,0.9469324231244617,-0.32143270840922794,2.371910570741906e-08,-5.823310213217125e-07,-0.4952506586486496,0.005970183312947417,-0.03416209043137169,9.80000003475455
1727685292.4091246,-1.8362817375856364e-07,5.569718495026609e-07,0.9492943112651132,-0.3143887889212183,2.2961924583227255e-08,-5.827401912990968e-07,-0.4952987228877057,0.004926326667845633,-0.034328133996679173,9.80000003552707
1727685292.464043,-1.7920149903863447e-07,5.623101655227996e-07,0.9523505159706791,-0.30500572901182116,6.719905935393365e-07,-5.799504415720501e-07,-0.48775285372324545,-0.10833949267300394,1.7541827890808714,9.80001074572007
1727685292.7439888,-1.7805911576988168e-07,5.730396462530587e-07,0.9544898148410876,-0.298243513532593,6.519528310517935e-07,-5.645560626805642e-07,-0.4654321550243828,-0.08053408019399244,1.7595600207581938,9.799997757287152
1727685292.746915,-1.7424081525938684e-07,5.740153399865394e-07,0.9562261196463726,-0.2926287889215294,-1.3356817349860702e-08,-4.5279233419898113e-07,-0.3549774076570584,-0.48505476059379665,-0.10403339867527646,9.800000130351183
1727685292.7802908,-1.6992426351602108e-07,5.725392456973534e-07,0.9578025749083755,-0.2874269080975698,-2.3893586689055046e-07,-2.926586653651267e-07,-0.2291346914009053,-0.35147984865083315,-0.6996448582268897,9.80000003194382
1727685292.8102205,-1.6713333765953267e-07,5.696605728613164e-07,0.9585684448660774,-0.2848623114886861,-2.3215021716539792e-07,-1.989663598731918e-07,-0.1535674468451485,-0.33716653730683743,-0.6907035444069038,9.800000935467462
1727685292.8938074,-1.655877222241856e-07,5.689703258135862e-07,0.9592237207872849,-0.28264793202612615,2.476020042365413e-09,-1.9530292631428346e-07,-0.1783773162866512,0.3439989133179431,0.039578369676056914,9.799999949545048
1727685292.9229984,-1.6389602074797387e-07,5.69507392575477e-07,0.9601714982842022,-0.27941133456307604,2.1431518629127635e-09,-2.7898070829531333e-07,-0.24751153016945932,0.3233936226099309,0.029602783531102725,9.799999961557397
1727685293.18246,-1.6073159143355676e-07,5.704945215062588e-07,0.9618438826595013,-0.2735988768071684,6.908656230208952e-09,-3.84205758191074e-07,-0.33520122767547744,0.31642838954612273,0.030493025692359985,9.800000062051312
1727685293.1851258,-1.6046810908769054e-07,5.804823512213752e-07,0.9631502227031731,-0.2689640282760231,5.930254186812262e-07,-3.837065867215376e-07,-0.3150945581170318,-0.05268577564296159,1.6422040684534054,9.79999682844397
1727685293.1919878,-1.5832190713452433e-07,5.838844589380224e-07,0.9645009976765877,-0.2640792030442771,1.3596812210272295e-07,-4.18907300966311e-07,-0.35187812395252166,0.23306930174955764,0.43550538289846247,9.799999189117559
1727685293.4971201,-1.5427139892228834e-07,5.863673927833213e-07,0.9664834452879902,-0.2567289426299427,-1.1132999910416536e-08,-4.738347256185366e-07,-0.38889406957500516,0.0775306173442575,0.009720115418555013,9.799999411995875
1727685293.498861,-1.4830243594048846e-07,5.774286512465305e-07,0.9679106637413768,-0.25129454235094506,-6.712105155106225e-07,-4.4692989142291674e-07,-0.36737415201778073,-0.06555192237565488,-1.8729017988606536,9.800002368573859
1727685293.519886,-1.4402991997687873e-07,5.74205547140548e-07,0.9693310782409179,-0.2457585415727161,-1.7119473998680302e-07,-4.588873620878426e-07,-0.3933847022029649,0.20628495737249714,-0.4877199782338317,9.800001872116026
1727685293.5762055,-1.3857600817619218e-07,5.726450304140639e-07,0.9714078779834994,-0.237416795090929,-1.3689941620715325e-07,-5.246726842173267e-07,-0.4519564517916633,0.2209597318769094,-0.41781410189679336,9.800000536039828
1727685293.607123,-1.341001172830945e-07,5.716748504891452e-07,0.973097555950101,-0.2303934604184672,-1.315683422813922e-07,-5.749774971550426e-07,-0.49640576820992666,0.21727096767450121,-0.42381956802808424,9.800000531068266
1727685293.6427913,-1.304949637523827e-07,5.758107818276421e-07,0.9748092985072794,-0.22303997745560517,6.710776012174035e-07,-5.930578036595467e-07,-0.49928392839650326,-0.10827814126154114,1.7514601634780318,9.800011027214051
1727685293.6742332,-1.2835005736026464e-07,5.864149453789142e-07,0.9764040586248418,-0.21595164806172668,6.510813456646356e-07,-5.779384901409e-07,-0.4769650183481201,-0.07982541913980588,1.7569731462442786,9.799997759739883
1727685293.9338994,-8.796316407327459e-08,6.297569438665159e-07,0.9898503757999031,-0.14211345301689993,2.0860901934564823e-07,-5.561913390555314e-07,-0.4360180918692886,0.2470882553542933,0.7825680306345548,9.799992433080114
1727685293.9406505,-8.222802875964928e-08,6.31606924958571e-07,0.9911207636998927,-0.13296477639786913,-5.957872910204087e-08,-6.091632354447812e-07,-0.4724758186024426,0.2053908520040948,0.0359827562329286,9.799998657872596
1727685293.9610412,-1.2536514461701605e-07,5.997159788975523e-07,0.9783487022223298,-0.20696332249823346,5.913329925217485e-07,-5.588656385417912e-07,-0.45075620521077464,-0.02590162364742838,1.6708366051442947,9.799997833639159
1727685293.970295,-7.745677785695548e-08,6.310775946859807e-07,0.9920416648805971,-0.12591002795857242,-7.863238026603734e-08,-6.130009261249337e-07,-0.47463378115399524,0.16111887659098162,-0.02925295545988326,9.800000031924752
1727685293.9762292,-1.2289262998673744e-07,6.084195829222141e-07,0.9796970799561906,-0.20048349439524243,4.3658289165033555e-07,-5.499382296859505e-07,-0.4393603777052011,0.07694780862835462,1.3047535183408587,9.799995566608407
1727685294.0030885,-7.266257173039294e-08,6.302853851167752e-07,0.9929126810748155,-0.11884615164328594,-1.227689761290843e-07,-6.114372451866484e-07,-0.4740081299197142,0.14830505645581685,-0.15929227665880952,9.799999307768454
1727685294.008477,-1.192134113158262e-07,6.118403777162049e-07,0.9810567956977927,-0.1937203231847156,1.270961920734863e-07,-5.862777262807746e-07,-0.4719239966186416,0.28024491043511646,0.4896225882743408,9.79999802044427
1727685294.0635068,-6.651900694662627e-08,6.309154229039923e-07,0.9939916612051982,-0.10945582421291106,2.3174378156162778e-07,-6.071869197042719e-07,-0.47262315067712013,0.1569279703845145,0.8160992291389619,9.800005027027275
1727685294.089131,-1.135975908094077e-07,6.153829582272972e-07,0.9828974471620963,-0.18415376282292545,-1.5492717241913878e-08,-6.198187547037023e-07,-0.4884641809441491,0.10971419938265113,0.0816222935974298,9.799998454396984
1727685294.0975194,-6.186853803538353e-08,6.30899316316218e-07,0.9947406586986483,-0.10242568980181493,-5.694516236420396e-08,-6.057972589843688e-07,-0.4701963975406595,0.14340116605987072,0.018937895629002062,9.799999815615719
1727685294.118348,-1.0824415890131624e-07,6.121652482671296e-07,0.9842099207520213,-0.17700517476309485,-7.582537371190913e-07,-6.116714054404973e-07,-0.48071781666936375,0.05408671728224701,-1.9866410371811432,9.799988246103238
1727685294.1568317,-1.0187430209119462e-07,6.019808057716585e-07,0.9854347504717123,-0.1700539695578473,-7.35814560735996e-07,-5.79672102044516e-07,-0.4654072484910339,0.01985124677818275,-1.9835348846218752,9.800002570271381
1727685294.3847876,-5.7810113952544876e-08,6.364437998766902e-07,0.995428950460335,-0.09550499769659754,5.36163909932512e-07,-5.962830329327568e-07,-0.4585350398292726,0.08898506500294678,1.6701951247939768,9.79999775684722
1727685294.390701,-5.2440067707350746e-08,6.438910265415875e-07,0.9962603429559773,-0.08640213569594768,1.4879674829920996e-07,-6.075214171745298e-07,-0.4680225639911315,0.3336606346573158,0.6749810113692127,9.799998370006294
1727685294.3923736,-9.712738600396339e-08,6.080833694586523e-07,0.9869304472722553,-0.16114680340176463,5.844522282200858e-07,-5.520793109937442e-07,-0.44305684166123593,-0.007032397320460908,1.6726419040797984,9.799997822306562
1727685294.4045444,-9.439444297551499e-08,6.172355844071377e-07,0.9879536429009141,-0.1547501194778959,5.669794527919464e-07,-5.400195664534906e-07,-0.42631284294372773,0.014035291458800052,1.676277048609662,9.799997792378115
1727685294.4193125,-4.766378519525635e-08,6.436522250028488e-07,0.9968515031351473,-0.07929111360537572,-9.126285576484324e-08,-6.263851266498172e-07,-0.4770772728392012,0.21768712744204385,-0.0073129922243924395,9.799999552803193
1727685294.4670696,-9.141378465165343e-08,6.245386417355516e-07,0.9889083215798382,-0.14852720797802965,2.3350241344081867e-07,-5.350086713081579e-07,-0.4229917680183084,0.2194698800124017,0.8257068157126208,9.799992616352103
1727685294.5240757,-4.282864749945476e-08,6.432399029664096e-07,0.9973962913094232,-0.07211544967475375,-6.713565227891787e-08,-6.310514206125854e-07,-0.4813087986512589,0.21910979505385406,0.05404087818050614,9.799998546680046
1727685294.5496867,-3.7933754898504474e-08,6.422105088423422e-07,0.9978913379531145,-0.0649066840759076,-9.458215912617486e-08,-6.307249224670574e-07,-0.4817903319045085,0.210168584517339,-0.029818079076784704,9.800000027405437
1727685294.5905108,-3.154190628823616e-08,6.415297228041623e-07,0.998462367347924,-0.05543375316146454,-8.115847173710197e-08,-6.163876733014319e-07,-0.4712409703491178,0.1889178915247637,0.0013677995915073577,9.79999963497205
1727685294.8320327,-2.7124927255986406e-08,6.466091395714209e-07,0.9988248087036391,-0.048466498921625856,5.187465766483355e-07,-6.070220953855164e-07,-0.460275554087569,0.1380651964636647,1.6702658918186153,9.7999977324535
1727685294.838375,-2.2571668315938034e-08,6.474122370444686e-07,0.9991314796823232,-0.04166876896900218,-8.41123183929443e-08,-5.967917915661071e-07,-0.45203122312644173,0.20263352883900487,0.028567637780804102,9.799998767606859
1727685294.8883557,-1.6487608559100947e-08,6.45875641288422e-07,0.9994653865942789,-0.03269466316590225,-8.932527326240756e-08,-5.884493037682497e-07,-0.4471619554375186,0.2003410925243131,0.00603913781555378,9.800000005736928
1727685295.1686237,-1.2104251459301258e-08,6.480131527103114e-07,0.9996589844833029,-0.026113497302951483,3.5808299627916136e-08,-5.73674937635013e-07,-0.4331754688657151,0.15455358109698947,0.3571139833618608,9.799991404152692
1727685295.1861858,-7.773863687351203e-09,6.46857008831628e-07,0.9998053769957151,-0.01972835852365895,-1.0811911864005737e-07,-5.582624580463704e-07,-0.42344148155029115,0.1863647407079575,-0.03772890706477179,9.799999851094329
1727685295.229582,-2.1350823614474794e-09,6.451651106369574e-07,0.9999357984467601,-0.01133132755788352,-8.819778841320257e-08,-5.485021091368846e-07,-0.4179292648421956,0.19448291071232862,0.010245489632726458,9.800000008087869
1727685295.2640123,2.0346389452015397e-09,6.436993703909501e-07,0.9999871732915547,-0.0050649039430307186,-1.0136237339339958e-07,-5.463561503303148e-07,-0.41822644706652684,0.21645786709874856,-0.030627246492759705,9.80000022868998
1727685295.305729,6.18879037877787e-09,6.422861835640305e-07,0.9999992670241957,0.0012107644932858874,-9.58256081354623e-08,-5.453695809278023e-07,-0.41840656961825373,0.2127170440230887,-0.023438216587137208,9.800000048737683
1727685295.3367498,1.0225635435757636e-08,6.409288014474551e-07,0.9999737833609681,0.0072410351705436415,-9.321534772376557e-08,-5.193225617699293e-07,-0.39826338543976425,0.1645265292211678,-0.025502628849288323,9.80000002716129
1727685295.6086116,1.527169766750719e-08,6.38625180049775e-07,0.9998933099360365,0.014607147043418534,-1.299125641653923e-07,-4.4194736331387984e-07,-0.3246666131761311,-0.301706317827499,-0.1902650434109198,9.800000275284107
1727685295.6153476,1.809208185258737e-08,6.377265753521266e-07,0.9998263029265856,0.01863770307061463,-6.225043370272953e-08,-3.3082052754702187e-07,-0.2536770503869267,0.008901467156655064,0.049426692324988857,9.799998429937418
1727685295.6415489,2.04707344476344e-08,6.364094839570649e-07,0.9997494690643123,0.02238300929769138,-8.696261378605126e-08,-3.1769500534055916e-07,-0.24924993833121722,0.12230849527230343,-0.008584403055781795,9.800000015929838
1727685295.7418585,2.35687439191787e-08,6.346616931421226e-07,0.9996282505293812,0.027264642729463162,-8.38453316699658e-08,-3.035254802345513e-07,-0.2379246774690284,0.08706009186896214,-0.01243105688145602,9.800000040233847
1727685295.7797873,2.578481440664882e-08,6.333858957179332e-07,0.9995249622037929,0.0308196354797437,-8.141017724100072e-08,-3.000878093003512e-07,-0.23700125780330739,0.1189024588328461,-0.007630213632567884,9.800000024033347
1727685295.8061576,2.7877512571490942e-08,6.321110745477137e-07,0.9994230055607168,0.03396551126632963,-4.843806790720026e-08,-2.4702501494494395e-07,-0.18990720831864838,-0.07615892438069996,0.05511204232914271,9.800001293702302
1727685296.0182116,3.001233581156867e-08,6.301758475431752e-07,0.9993086082335624,0.03717936941237676,-1.114479051907456e-07,-1.6797480350058556e-07,-0.1194665136063468,-0.3799495553707483,-0.1635995951768564,9.800000237319018
1727685296.0367124,3.080162358048692e-08,6.293856185275803e-07,0.9992629602169585,0.03838666875419344,-6.696832475448067e-08,-8.879919114343778e-08,-0.07415321476545973,-0.009602091687473542,0.010774474402074677,9.799999207284959
1727685296.0658255,3.1348283369842e-08,6.282940760656727e-07,0.9992203366003997,0.03948061453153889,-7.138989719401113e-08,-8.478371580835211e-08,-0.07284574908068456,0.035519407913508425,-0.0008192441304840745,9.800000012606068
1727685296.365827,3.188729489274015e-08,6.270528248195701e-07,0.9991828678343168,0.04041777611393227,-1.0426826463234455e-07,-6.608890281468135e-08,-0.04193796178817881,-0.3959781092539991,-0.15677969688250895,9.7999994788252
1727685296.3794367,3.193882290171482e-08,6.25216313941426e-07,0.9991697067709313,0.040741834407639343,-9.204570851660627e-08,-8.20580333307334e-09,-0.012846981176400426,-0.014648129570390507,-0.07814213648714254,9.79999960278391
1727685296.407142,3.188504762218004e-08,6.242465949160085e-07,0.9991621595156012,0.04092650720168034,-6.275924590289126e-08,-6.65255099424132e-09,-0.012259105120650676,0.005630550358957666,-0.00029087782979820735,9.800000021999264
1727685296.4373827,3.183871135972042e-08,6.23436737988285e-07,0.9991545101784072,0.04111282998964022,-3.8945990699597877e-08,-7.201100386007259e-09,-0.012799084594060022,0.013848164833466105,0.06169062552187461,9.800000366969996
1727685296.5151234,3.1787679118553e-08,6.222660978024317e-07,0.9991437932610929,0.04137245928689631,-5.8672646315992614e-08,-8.137519264292175e-09,-0.0130117886732667,0.00651315683927685,1.5309467428371242e-05,9.800000010348374
1727685296.550189,3.196016036810461e-08,6.219220013119412e-07,0.9991164971717126,0.042026480687048284,-5.412828252839919e-08,-5.179680002693059e-08,-0.04800846209484684,0.055692983129989326,0.015693996026635418,9.799999483790346
1727685296.7987802,3.2288181361401906e-08,6.210885322220068e-07,0.9990903084564959,0.04264452541554198,-5.02136868780671e-08,-4.1300827202582794e-08,-0.02621535209481478,-0.29239131168254495,-0.025878112033998493,9.80000013703474
1727685296.808629,3.235386714098979e-08,6.199902034653628e-07,0.999074614664168,0.04301063046804082,-5.419681931133037e-08,-1.468451288759071e-08,-0.017537464622310033,0.006939363279375386,-0.00030426534881251036,9.800000011391466
1727685296.8378513,3.23856598426654e-08,6.191921046419492e-07,0.9990618607634147,0.043305869897263316,-5.261589292393339e-08,-1.8915553754675253e-08,-0.0212051695196133,0.021507082646234306,0.0014850597560025973,9.800000007707684
1727685296.8780966,3.2450258457618906e-08,6.184171807467925e-07,0.9990475997853601,0.04363362651358599,-5.097268515730229e-08,-2.0715561394601155e-08,-0.02269109121701817,0.027540041787822427,0.0024875189756514374,9.800000010026165
1727685296.970591,3.2534017924007385e-08,6.176638123463156e-07,0.9990324237984598,0.04397972486261614,-4.956365656325505e-08,-2.227358812601882e-08,-0.023143613045706127,0.01193170414286637,-1.5134444860834354e-05,9.800000009414964
1727685297.0118344,3.260710896084899e-08,6.166952593907924e-07,0.9990171315875898,0.044325735122198284,-4.7554974262337515e-08,-1.173597390529926e-08,-0.014445312144778833,0.0005076177325185624,-0.0010183061995396258,9.800000012952994
1727685297.2538056,3.259862980193275e-08,6.155471291657699e-07,0.9990136577340647,0.04440395996332702,-1.358994630606121e-07,4.489395302752152e-09,0.012914541009110214,-0.37369340054724737,-0.30112730190749426,9.79999857357546
1727685297.2563884,3.2249677130798914e-08,6.146157760689212e-07,0.999030974748351,0.04401262878970896,-4.388511639387992e-08,4.131060764240224e-08,0.027689199736859238,-0.025133319786120073,-0.004526634590712601,9.80000013919579
1727685297.2980533,3.1740368771935645e-08,6.139157634075119e-07,0.9990538258968779,0.04349083766073947,-4.135123241695821e-08,3.9370775411289335e-08,0.025957782979555213,-0.01250966878900885,0.00014857504587304648,9.800000000906389
1727685297.6172538,3.134628349836845e-08,6.129461983308054e-07,0.9990676779636145,0.043171458720022704,-1.1525426691886131e-07,3.120214443725235e-08,0.012037522736488148,0.18169634658275954,-0.18139287682498131,9.79999876896688
1727685297.6209836,3.1138320640453463e-08,6.123120652892102e-07,0.999072430654933,0.04306133189844502,-3.8533351079685823e-08,1.4744782734472311e-08,0.006789583146513992,0.0006960301253602162,3.3594274933512165e-05,9.800000031312168
1727685297.6552134,3.094130754578003e-08,6.123930382675373e-07,0.9990779434897572,0.04293323691385942,-3.559514239383361e-08,1.3643617891739419e-08,0.006263115475408703,-0.0027552540306255598,0.007995765822910153,9.799999649542055
1727685297.6865163,3.077230867736903e-08,6.118358031858142e-07,0.9990819666606238,0.042839513222781345,-3.734084765259594e-08,1.3431927620522903e-08,0.006252906972215182,-0.0031102216796627716,3.269945008053604e-05,9.800000006349022
1727685297.7163913,3.057064903294933e-08,6.115030452742835e-07,0.9990908806970287,0.04263111665979008,-3.586202741854796e-08,2.3760828086970294e-08,0.014817982816551906,-0.014008468685176204,0.0010202010586906488,9.799999920145975
1727685297.7724285,3.031884081458126e-08,6.109748817657203e-07,0.9991011743987391,0.042389188653307264,-3.548435706246622e-08,2.63108746798437e-08,0.016955521736685075,-0.014356608556550129,-0.000890497970051587,9.800000010181888
1727685298.0645525,2.981656135806598e-08,6.068309184957515e-07,0.999115527024754,0.04204953813870871,-7.277112083462241e-07,2.709897424390595e-08,0.016683138649633958,-0.004288812394689159,-1.9220314711913957,9.799988665211469
1727685298.0673254,2.912693388420434e-08,5.961507795664405e-07,0.9991254853262734,0.04181225384001297,-7.060691544704032e-07,2.489192740044103e-08,0.015414777208431303,-0.0030033930961124154,-1.9218973149515046,9.800002435094546
1727685298.0834851,2.8471120856389408e-08,5.857881105233409e-07,0.9991346222140483,0.041593349141985536,-6.850447707992234e-07,2.2844940763667208e-08,0.014209022578474098,-0.0018860239489081145,-1.9217543968376334,9.800002390822776
1727685298.1280365,2.7645807074663515e-08,5.724489116998539e-07,0.99914561368286,0.04132847272731621,-6.579788723868089e-07,2.0348335967475833e-08,0.01269632208327387,-0.0006371125153563711,-1.9215638116722602,9.800002333840645
1727685298.2194932,2.70612082247681e-08,5.627910408290085e-07,0.9991530254046603,0.04114889821607809,-6.383813696164792e-07,1.8637999023172182e-08,0.011631069478879472,0.00013380968288731308,-1.9214206531678988,9.800002292614407
1727685298.2496195,2.7056366954764664e-08,5.665184833018451e-07,0.9991598687410495,0.040982394964757585,6.850187147096245e-07,1.601328456609615e-08,0.01093206440724575,0.0014876568772507705,1.7307058698902762,9.799997900951837
1727685298.4951842,2.7410335155040384e-08,5.798746813477713e-07,0.9991684673649761,0.04077221876704612,6.579481673923164e-07,1.543662632237505e-08,0.010278540223645383,0.0006342987406449228,1.730461709262455,9.799997859402753
1727685298.5010028,2.7664235681441693e-08,5.895443644954197e-07,0.9991745603445918,0.040622628667320415,6.383479346624798e-07,1.5031532496671263e-08,0.009836477374528637,5.930845830133171e-05,1.7302809754099737,9.79999783006335
1727685298.5243366,2.7599946237936027e-08,5.916535798462082e-07,0.9991810297460416,0.04046319062170817,1.0700119548561365e-08,1.6691535676598515e-08,0.010728361575360359,-0.004688086533748419,0.019119593805627305,9.79999913361794
1727685298.8350968,2.73173799698779e-08,5.907840876365263e-07,0.9991975588422579,0.040052945001871954,2.304730652351849e-09,3.850037729106618e-08,0.02935741238600969,-0.025470122387581028,-0.011260939554346023,9.800000413663225
1727685298.839808,2.6883182389461397e-08,5.939084180958737e-07,0.9992326162560214,0.03916859213442747,8.120434944536965e-09,6.08278675985292e-08,0.04722432282515679,-0.02387827993747295,0.022478095287210884,9.799998941694449
1727685298.8605568,2.6388488180200523e-08,5.93925321255014e-07,0.9992601900089257,0.03845871374567078,-4.2275139794022437e-10,6.115576715085424e-08,0.047377174127151145,-0.01857031376503778,-0.0002266102857779918,9.799999997617942
1727685298.8902104,2.5894995331783642e-08,5.939351495806041e-07,0.9992872703180102,0.03774852818357333,-4.2874771382836613e-10,6.102106599735256e-08,0.04738046107289143,-0.018455613145895104,-0.0002749937754508146,9.800000000518672
1727685298.9305723,2.523772778677417e-08,5.938415764983582e-07,0.9993224673547327,0.036804975746442814,-2.477977034692716e-10,6.05966296461265e-08,0.04719377884907622,-0.0183131422306843,-0.00041278266172291864,9.800000007040614
1727685298.9879262,2.4769935145691896e-08,5.943508101463714e-07,0.9993482239921107,0.03609885321531098,1.1326231511589672e-08,6.03393770282457e-08,0.04704579229319972,-0.01790484092001662,0.03413795576434075,9.799998453243619
1727685299.290585,2.428600885458021e-08,5.943582788211771e-07,0.9993734433558525,0.03539379486170613,-1.1378121286764175e-09,6.019066446536837e-08,0.04703251387913171,-0.018411997182150742,-0.00017263120954171847,9.799999996320786
1727685299.2932124,2.3626528117189667e-08,5.952805067724407e-07,0.9994099845086952,0.03434651167112096,2.9019748002116196e-09,6.707634474415746e-08,0.0522031197817734,-0.00841920803566703,0.017383787418821846,9.800000032966995
