timestamp,orientation_x,orientation_y,orientation_z,orientation_w,angular_velocity_x,angular_velocity_y,angular_velocity_z,linear_acceleration_x,linear_acceleration_y,linear_acceleration_z
1727704915.1893542,6.132400791909353e-07,-1.3165519695774888e-09,-1.4274793684321274e-06,0.9999999999987931,-3.8584223424838624e-08,3.995493614318591e-10,1.4912154295628505e-14,2.5686477684105e-08,1.2009713753406933e-05,9.799969111493859
1727704915.1931493,6.126728151680118e-07,-1.3106789093420946e-09,-1.4274793679880382e-06,0.9999999999987934,-3.7438064266970685e-08,3.876711901342178e-10,1.2250718770555797e-14,2.5576788652330086e-08,1.199888070234387e-05,9.7999700289195
1727704915.2188191,6.121224024658752e-07,-1.304976288301206e-09,-1.4274793680990605e-06,0.9999999999987939,-3.63253939906534e-08,3.764502615284443e-10,9.805126349504728e-15,2.547060483387308e-08,1.1988364674342493e-05,9.799970919101069
1727704915.2484167,6.115883460302759e-07,-1.2994433113008435e-09,-1.4274793677659936e-06,0.9999999999987941,-3.5247004130732997e-08,3.6521251541107315e-10,9.512285375616149e-15,2.5367704470669743e-08,1.1978205333899172e-05,9.799971782806757
1727704915.2891245,6.109008724619671e-07,-1.2923222748654597e-09,-1.427479367543949e-06,0.9999999999987945,-3.3856823156433264e-08,3.50513385479481e-10,1.633717000010668e-14,2.5221497422875992e-08,1.1965056901065568e-05,9.799972894692957
1727704915.3494008,6.104031080970994e-07,-1.287166909806847e-09,-1.427479367155371e-06,0.9999999999987947,-3.285120946747777e-08,3.4031569360025393e-10,1.0870600826909468e-14,2.5126189378606575e-08,1.1955562996707561e-05,9.799973699738157
1727704915.6046507,6.099201210323276e-07,-1.2821665541867024e-09,-1.4274793669888375e-06,0.999999999998795,-3.1875779886180804e-08,3.2991956488788814e-10,1.415600012327912e-14,2.5028594179692013e-08,1.1946338721760576e-05,9.799974480893528
1727704915.6093466,6.092983776079758e-07,-1.2757310786630974e-09,-1.427479366822304e-06,0.9999999999987954,-3.062037891439017e-08,3.1692158066259544e-10,1.0417701254730159e-14,2.490909950319459e-08,1.1934488242412682e-05,9.799975486419669
1727704915.638202,6.088482015655423e-07,-1.2710710376072882e-09,-1.4274793666002594e-06,0.9999999999987956,-2.971082966071143e-08,3.0760354914043893e-10,7.865217748094353e-15,2.4824315462129677e-08,1.1925888467866818e-05,9.7999762145114
1727704915.6667705,6.084113930384487e-07,-1.2665490143766232e-09,-1.4274793665447483e-06,0.9999999999987961,-2.8828219032443134e-08,2.9857449120646947e-10,7.178222663780796e-15,2.4736198134941753e-08,1.1917542634996137e-05,9.799976920966147
1727704915.7940638,6.078490984301971e-07,-1.2607279041281985e-09,-1.4274793662116814e-06,0.9999999999987964,-2.7692005849192602e-08,2.8653400082636985e-10,1.452610432569629e-14,2.4616666760226457e-08,1.1906815440097557e-05,9.799977830371546
1727704915.8266969,6.074419704361026e-07,-1.2565091750644932e-09,-1.4274793662671925e-06,0.9999999999987967,-2.686968133642758e-08,2.784397453156907e-10,7.439191075474223e-15,2.454499744144461e-08,1.1899050845944045e-05,9.799978488829849
1727704916.0355515,6.070469371029542e-07,-1.2524153681621428e-09,-1.4274793659341256e-06,0.9999999999987967,-2.6071252640629917e-08,2.7009955217233137e-10,9.989296655759312e-15,2.4464429905640078e-08,1.1891509829542592e-05,9.799979127728191
1727704916.0398707,6.066636374856871e-07,-1.2484450219924282e-09,-1.4274793658786145e-06,0.9999999999987972,-2.529686810623322e-08,2.619250596638496e-10,1.1234313115478728e-14,2.438619788516681e-08,1.1884189594414106e-05,9.799979747657366
1727704916.0640132,6.061702301860525e-07,-1.2433321350449972e-09,-1.4274793656010587e-06,0.9999999999987974,-2.429913762159202e-08,2.5172011676364526e-10,8.442798266411503e-15,2.4291039584006246e-08,1.1874754973822152e-05,9.799980545693893
1727704916.3444517,6.058129851373378e-07,-1.239634518062952e-09,-1.4274793654345252e-06,0.9999999999987976,-2.3577333390485554e-08,2.441794949396545e-10,4.570117010838338e-15,2.4224499985216198e-08,1.1867950896488012e-05,9.799981123504118
1727704916.3458338,6.054663461063681e-07,-1.2360474216889839e-09,-1.4274793652679918e-06,0.9999999999987977,-2.287737670124627e-08,2.3668273108809655e-10,9.987679161715612e-15,2.4148857137491795e-08,1.1861340410919861e-05,9.799981684143761
1727704916.3740869,6.050201092336747e-07,-1.2314298436804577e-09,-1.4274793651569695e-06,0.9999999999987981,-2.197677505863321e-08,2.2709559798935225e-10,1.5295139497801687e-14,2.4053890734141064e-08,1.1852818884175229e-05,9.79998240586644
1727704916.4046772,6.046970105307355e-07,-1.2280861735640493e-09,-1.4274793651014583e-06,0.9999999999987983,-2.1323866975174212e-08,2.2067548078424025e-10,6.483395438810719e-15,2.4000556472266858e-08,1.1846650323439344e-05,9.799982928429621
1727704916.4346356,6.043835068389017e-07,-1.2248406648569536e-09,-1.4274793649349249e-06,0.9999999999987985,-2.069030750308502e-08,2.1406712818931705e-10,1.1345960325131782e-14,2.3931072903515676e-08,1.1840662801428135e-05,9.799983435470011
1727704916.4966013,6.039799441924244e-07,-1.2206624927692782e-09,-1.4274793648794137e-06,0.9999999999987987,-1.987438364543903e-08,2.0581913472248834e-10,4.337555102881801e-15,2.3860822021858295e-08,1.1832954259554918e-05,9.799984088194902
1727704916.758802,6.036877418151014e-07,-1.2176352265924878e-09,-1.4274793647128803e-06,0.9999999999987988,-1.9284685835608778e-08,1.9987631623667406e-10,4.970092609396271e-15,2.380069511160537e-08,1.1827390625832692e-05,9.799984560779562
1727704916.761016,6.126777024773258e-07,-1.223780772412052e-09,-2.4198733972191633e-07,0.9999999999997831,5.933063638064639e-07,-3.08312425685459e-10,0.00011761090502402185,0.0008418892313384654,1.7309124903672872,9.799982776082105
1727704916.7736328,6.190489908273594e-07,-1.2355543331337655e-09,-0.0001230955994866445,0.9999999924235453,1.9986927389360005e-07,-1.4736113204186192e-08,-0.02070155162660814,0.23426066010230667,0.7185652777707241,9.79997892504182
1727704916.8242297,6.189258922998678e-07,-1.6633213788178629e-09,-0.0009153343501416278,0.9999995810812344,-4.966471037936657e-08,-5.1483783178788955e-08,-0.04148650758502422,0.008504928871543149,0.0015940863310870454,9.799985988432358
1727704916.8998163,6.258491903650511e-07,-2.059705658005682e-09,-0.0015799485665913826,0.9999987518802887,2.4099199612473585e-07,-5.800619453530259e-08,-0.05293611129788996,0.19348382764104669,0.8626238170586297,9.79997891973719
1727704916.9340355,6.291129833136409e-07,-2.7012443501506658e-09,-0.002672577251364272,0.9999964286588425,5.597663397478592e-07,-9.455633605036878e-08,-0.07326964671308814,-0.013590114674751486,1.7258998895322688,9.799996446501316
1727704917.1537628,6.30349172257817e-07,-3.833929371070378e-09,-0.004554163957385782,0.9999896297413549,-6.995756933460955e-08,-1.2630517261661008e-07,-0.09937737373460696,0.03043330332267465,0.008811975248680931,9.799987002151363
1727704917.1574428,6.38536823213066e-07,-4.831483638302592e-09,-0.005977026592075274,0.999982137416819,5.406028998433436e-07,-1.2155308263806006e-07,-0.0926612605101503,-0.010480546353103934,1.7241150529639504,9.799985434187816
1727704917.178148,6.381097311909487e-07,-5.743777215455046e-09,-0.007369927734131698,0.9999728417136069,-8.561633480090632e-08,-1.2032442882884657e-07,-0.09288768809078943,0.022078097496367136,0.007494175619311209,9.799987736585312
1727704917.4792857,6.36372533484913e-07,-6.947328399068603e-09,-0.009227716612649706,0.9999574237164858,-8.528859880538542e-08,-1.1994889051914401e-07,-0.09289313828866512,0.02189859286939164,-0.0011792079479049247,9.799988595059002
1727704917.4835331,6.427201946973328e-07,-7.910515181966273e-09,-0.010632437686033225,0.9999434740366274,1.976040261402339e-07,-1.238711296425243e-07,-0.10147664895513872,0.2026120921489779,0.8347299155757022,9.799981226380641
1727704917.5017905,6.431951133829871e-07,-9.077338664874334e-09,-0.012538147282914913,0.9999213943417242,-7.395516492920457e-08,-1.718965173593915e-07,-0.13291057646616505,0.08149729049117642,0.07206562061122072,9.79998616437328
1727704917.5337157,6.417453463752018e-07,-1.03895057518548e-08,-0.014547496856420261,0.9998941795684183,-9.592272523926075e-08,-1.7509051770049803e-07,-0.13409501609763788,0.03983741459980254,-0.0021329079910483045,9.79998957781182
1727704917.5746524,6.295424242417371e-07,-1.1924325936745577e-08,-0.017142972850221816,0.99985304844335,-7.724754972737544e-07,-1.6244081891908948e-07,-0.12551503971838152,-0.006297892533819711,-1.93136778755744,9.799992563012317
1727704917.6429858,6.217912044183045e-07,-1.299528626159662e-08,-0.019162073793278667,0.9998163906075725,-2.878494079461795e-07,-1.7627169549560772e-07,-0.1494233739123081,0.27495168373464296,-0.6057979864747173,9.799995104044239
1727704917.6681771,6.106410830269011e-07,-1.4147384966447855e-08,-0.021303939014745088,0.9997730453368319,-7.34335019767454e-07,-1.744908026896391e-07,-0.13957683125989495,-0.021646609670625736,-1.9327807552275422,9.799993071013272
1727704917.875022,5.962885654408199e-07,-1.5468678746295624e-08,-0.023939276923688635,0.9997134144443671,-7.05307338562795e-07,-1.545478955847673e-07,-0.12724724977271668,-0.03074054970601687,-1.9313166405791797,9.799993379920878
1727704917.8996882,5.92241568632827e-07,-1.6592994574334793e-08,-0.026219026094427056,0.9996562222435814,-1.6564474272192937e-07,-1.890746757166029e-07,-0.16840272469290268,0.24236293736712472,-0.4367310283924398,9.79999250624415
1727704917.9361932,5.899578114191526e-07,-1.816583288399088e-08,-0.0292438678188644,0.9995723066365156,-1.4465419297603318e-07,-2.476823587461877e-07,-0.21815548680577382,0.2356020665990815,-0.396660053269907,9.799992020526684
1727704918.024274,5.871818124182555e-07,-2.09254028412536e-08,-0.03439506285825872,0.9994083147796156,-1.291337386351567e-07,-3.2118191794834776e-07,-0.28095995721017253,0.22068624458195438,-0.37785928232616084,9.7999923067831
1727704918.0536706,5.862368712637864e-07,-2.3487060272256384e-08,-0.03893328359093062,0.99924181228994,7.934101852382085e-09,-3.59829389674754e-07,-0.30719922681041867,0.03535222561568918,-0.03565406760749908,9.799993266784863
1727704918.0866408,5.863818868665684e-07,-2.622863240897377e-08,-0.04358165719409168,0.9990498682027199,1.733839146925368e-08,-3.6529278592560595e-07,-0.31050725687008235,0.004546880661345069,-0.013195411496132682,9.799992295769838
1727704918.2607765,5.864795669375031e-07,-2.9034475108179894e-08,-0.048563645579452475,0.9988200900701228,1.3705095306547818e-08,-4.0285938791773394e-07,-0.35441228928279106,0.30949114239637177,0.014336728370014243,9.79999248946168
1727704918.2804956,5.866284147091538e-07,-3.359611076814221e-08,-0.05673081037897981,0.9983895107388693,3.687803156089623e-08,-5.060034842698644e-07,-0.4409193447405755,0.29370273622328036,0.06168328878141883,9.799993195878317
1727704918.3146155,5.867117275631589e-07,-3.7574102078295e-08,-0.06349265423127698,0.9979823058843887,1.9579896583853895e-08,-5.341015314639932e-07,-0.4535041359931101,0.021568008720723376,-0.025640684349487616,9.799993027856171
1727704918.5311286,5.866541749623948e-07,-4.1658078009176894e-08,-0.07061533734841036,0.997503621111635,1.1819873489526041e-08,-5.730146931054093e-07,-0.4978411124593659,0.3118622611450408,-0.014198639330124893,9.799993239623664
1727704918.5531027,5.866726794511485e-07,-4.7924066534171535e-08,-0.08149420500349353,0.9966738155236656,2.813168997645843e-08,-6.6141219552449e-07,-0.5633837165118634,0.0916012972535281,-0.015152237137171946,9.799993115354047
1727704918.5826283,5.865740812224668e-07,-5.295968337305664e-08,-0.08996077671482777,0.9959453090669779,2.1495646987334276e-08,-6.69944084358942e-07,-0.5670830985819366,0.01149276805380337,-0.04406814128978803,9.799993728613156
1727704918.614319,5.864121207867069e-07,-5.801239762078292e-08,-0.09843199683289294,0.9951437795610953,2.0758005981032128e-08,-6.707298239049307e-07,-0.5673055911126071,0.006664242725704777,-0.04500624980585989,9.799993922985474
1727704918.6741936,5.860592337821294e-07,-6.473609915763026e-08,-0.10982561444354505,0.9939508712264151,8.76062430073359e-09,-6.825996180715501e-07,-0.5892408694264583,0.31396726857471896,-0.03749934088411563,9.799993961958027
1727704918.705424,5.858110250470102e-07,-7.015508733131525e-08,-0.11913213366775632,0.9928784088333373,2.6392194690094184e-08,-7.467640627867022e-07,-0.6345222070089104,0.09986276697386039,-0.03148994544729091,9.799994047905017
1727704918.917899,5.852913321744071e-07,-7.585329908572644e-08,-0.12894103689323133,0.9916522621385734,7.714232209101577e-09,-7.919479618695236e-07,-0.6809378561763813,0.3160292389217878,-0.06488486370095181,9.799994533806418
1727704918.932603,5.8489352473752e-07,-8.210240607174715e-08,-0.139681478775751,0.9901964878177818,7.445112457914587e-08,-8.666176865163448e-07,-0.7401200114206321,0.22358778324432255,0.0871166106623616,9.79999583140881
1727704918.9739022,5.841709087788865e-07,-9.0965557172255e-08,-0.15448772424781854,0.9879947080103113,2.5731038576178796e-08,-8.891850873732103e-07,-0.7497833910528156,0.016125743110005843,-0.0775512327374951,9.799994912630572
1727704919.0453525,5.83264143255235e-07,-9.76529053696521e-08,-0.16591575545508713,0.9861399302793787,5.389092149375305e-09,-9.274810692038325e-07,-0.7937580994079072,0.3192411592758319,-0.10407941439690548,9.799995110590633
1727704919.07549,5.826317718566483e-07,-1.0481738559941822e-07,-0.1778674815983678,0.9840544491995875,2.926958901359611e-08,-9.62676838543604e-07,-0.8115013919225527,0.03754664574067071,-0.08372740302075703,9.799995118890727
1727704919.1135893,5.812869091189571e-07,-1.145953512504505e-07,-0.19443800120588195,0.9809148095969956,6.61070147231481e-08,-1.0249973586012054e-06,-0.8707835262129173,0.21965735583932194,0.023225354585746903,9.799996521275938
1727704919.2947118,5.799136288204853e-07,-1.2235312451298042e-07,-0.20763996884631075,0.97820531757763,2.9346882233950394e-09,-1.0801703754262124e-06,-0.9203941678716601,0.32333640360601423,-0.15530826594994007,9.799995651275546
1727704919.302645,5.788103402375759e-07,-1.3072115940501075e-07,-0.2216801053034897,0.9751194444334916,7.995497350560337e-08,-1.1493577130470673e-06,-0.9715973068802755,0.16167310869040655,0.01254344834242494,9.799995908924148
1727704919.367188,5.768410750760659e-07,-1.4223654880550097e-07,-0.2406954292316154,0.9706006956244444,3.4233978793956e-08,-1.1657124224446301e-06,-0.978157282485283,0.022184489129582926,-0.13306727562960757,9.799995918807156
1727704919.6817257,5.748021885441379e-07,-1.5082641079939434e-07,-0.25522919348437917,0.9668805814540696,-1.8694556970222323e-10,-1.2042534436257374e-06,-1.022072046861205,0.3271932674241542,-0.20197613123457236,9.799996141193668
1727704919.6886168,-5.724986774373624e-07,1.598846582043117e-07,0.27064584907687494,-0.9626789830348972,3.505972323521819e-08,-1.2814413628448193e-06,-1.0859897613860792,0.3007951300060715,-0.14061901587896217,9.799996879719155
1727704919.7180195,-5.710303492907183e-07,1.697213880235573e-07,0.2865981922737041,-0.9580508734848532,5.182261631806242e-08,-1.3266945036607886e-06,-1.111936576899744,0.06573585042157697,-0.13741236215021596,9.799995636794971
1727704919.760066,-5.678230273431465e-07,1.827077165487934e-07,0.30786264925341383,-0.9514308115645159,3.9606421123163947e-08,-1.3326425006552536e-06,-1.11383913711687,0.02525039432256085,-0.17347171436200656,9.799996491258124
1727704919.8309822,-5.651916899960433e-07,1.924039480407219e-07,0.32371557551413066,-0.9461544409710281,3.833472404477515e-08,-1.3338538289854414e-06,-1.113882328347856,0.0243158097195662,-0.17370845178981634,9.79999660416027
1727704919.86575,-5.619507853539874e-07,2.019596346284114e-07,0.3397873030905939,-0.9405023065671153,-6.048136378300789e-09,-1.3724136339588273e-06,-1.1576921479984235,0.33283444988908417,-0.2719020997361098,9.799996835772498
1727704920.084183,-5.569089294051115e-07,2.1530617524988802e-07,0.36247514365801903,-0.9319934389413597,-5.650855213895545e-09,-1.4754915102227133e-06,-1.2441060342702233,0.3307347600457563,-0.3211626575873818,9.799997032143855
1727704920.0890627,-5.544826887443802e-07,2.2655063325243842e-07,0.38020277823444293,-0.9249031556992613,1.303057236316941e-07,-1.5347871335807196e-06,-1.2839672594327296,0.16225381279561787,0.01205821396466384,9.799996232841583
1727704920.1188555,-5.507230008120962e-07,2.3759502459914247e-07,0.39801354836684016,-0.9173795372233222,4.941466830154506e-08,-1.5511729032366307e-06,-1.289890041552355,0.040586866812126775,-0.22859457544832737,9.799997037962633
1727704920.230882,-5.45171844821348e-07,2.52176462627344e-07,0.42155066713896505,-0.9068048494766295,4.6317016685994655e-08,-1.554136622668548e-06,-1.290260980653919,0.03264062864806249,-0.23306021963796145,9.799997239996877
1727704920.2567248,-5.407335813516032e-07,2.630175387097925e-07,0.43902094312362244,-0.8984768285818413,4.4860798139716605e-08,-1.555686094935466e-06,-1.2902693988978788,0.032458274576861366,-0.2330965165125437,9.799997330806987
1727704920.289225,-5.358528227853818e-07,2.738660196117606e-07,0.4568759927509771,-0.8895303970339895,1.212321206217458e-07,-1.6161071141813072e-06,-1.348593819500622,0.2401973426690031,-0.025089799431733156,9.799999623109983
1727704920.5078425,-5.308970203830436e-07,2.8515804295786137e-07,0.4747481283809652,-0.880121704424114,4.810578609485709e-08,-1.623391558030377e-06,-1.326398103437655,-0.4068014740594047,-0.3079363432785666,9.799997420153812
1727704920.5116222,-5.236752772980541e-07,2.9931755469631093e-07,0.4974963264230724,-0.8674660830229525,9.113480145772786e-09,-1.5675782255470636e-06,-1.2935283094909935,-0.03391362637390532,-0.33177418350698157,9.79999749122841
1727704920.5571194,-5.176766245783805e-07,3.0939641929584117e-07,0.5139760496502146,-0.8578045350693806,-1.975343613578126e-08,-1.532395498613214e-06,-1.2473477233347334,-0.49102044175160653,-0.4525693771560454,9.799997486095975
1727704920.8328767,-5.117060581357323e-07,3.186580359372262e-07,0.5289946314210697,-0.8486251704535537,-1.981330702889033e-08,-1.3969318222298745e-06,-1.1365090123178472,-0.5016667731031752,-0.38919236042664684,9.79999780987303
1727704920.838346,-5.043305778347541e-07,3.2948686428644794e-07,0.5465943824843402,-0.8373975047945866,-1.9568858731950004e-08,-1.2160588372685183e-06,-0.9882072244190757,-0.5123937323620018,-0.31335013104729914,9.799997979113094
1727704920.8713613,-4.993271554275668e-07,3.365236171354014e-07,0.5580239451117831,-0.829824846989724,-1.9234765718699536e-08,-1.0807379509357e-06,-0.8769653878690031,-0.5179610029864135,-0.2632024410039116,9.799997989865313
1727704920.9008534,-4.975339599325988e-07,3.445214397343191e-07,0.5680993207411079,-0.8229600001051846,6.403531241571382e-07,-9.640017418802537e-07,-0.7956745140176484,-0.11465997494629569,1.6591301072565903,9.80000878428434
1727704920.9603271,-4.999337122595141e-07,3.5796413280735175e-07,0.5809564213681855,-0.8139346635146417,2.1472982573654157e-07,-9.677032043111299e-07,-0.7904053114929658,0.1752928425215544,0.5820101276408326,9.799992308856421
1727704920.9923923,-4.990933121429801e-07,3.6651204261499765e-07,0.5907144284352005,-0.8068807000034708,2.0603214010544047e-07,-9.989447060641569e-07,-0.8088795428518301,0.19922920936604624,0.575782139617161,9.799992439804939
1727704921.2250965,-4.98116891469959e-07,3.753749927439355e-07,0.6006024654025648,-0.7995477962898603,4.949507077016196e-07,-1.0282272218539294e-06,-0.8156426084206172,-0.09382240691413563,1.3461860535013532,9.800002073415135
1727704921.2265399,-4.975783901902051e-07,3.8448425951001966e-07,0.6098714587934513,-0.7925003493682209,3.3466665880438835e-07,-9.695285097779398e-07,-0.7566153738417212,-0.17086364398517978,0.9423239928055863,9.799996761310316
1727704921.26626,-4.962261578057661e-07,3.9524832365470247e-07,0.6209937771739223,-0.7838154940487349,2.4588444476799255e-07,-8.767736993411161e-07,-0.675818764914816,-0.1572104520053078,0.7574432852091998,9.799996235884592
1727704921.3007913,-4.940226725432121e-07,4.015993936144141e-07,0.6283633918468112,-0.7779199494719011,1.3048409900970375e-07,-7.929691374704297e-07,-0.6053503251047038,-0.210398125639919,0.4669605771267384,9.799997275078312
1727704921.3372457,-4.924745979460962e-07,4.077252699133925e-07,0.6350365072113208,-0.7724821256886383,9.057714458084473e-09,-7.321614218113327e-07,-0.5636629467619381,0.02796641826063305,0.19443525623226524,9.799993405403537
1727704921.3730667,-4.901041181363668e-07,4.1522178363084763e-07,0.643523205001894,-0.7654266030284534,2.1312459431083661e-07,-7.068554700773985e-07,-0.5394847686399977,-0.03618261812087592,0.7678466230720329,9.799990981303862
1727704921.5982738,-4.884174579615182e-07,4.2068958191339677e-07,0.6495924226309358,-0.7602826345906213,5.252653132282701e-07,-6.860519013034044e-07,-0.5260108533283808,0.05358125817429752,1.65405705933963,9.800007905654143
1727704921.630034,-4.90098398006761e-07,4.289538177084241e-07,0.655412265575396,-0.7552713169006897,2.945168536463232e-07,-6.681024359339806e-07,-0.4996808418485547,-0.0699632835266933,1.0429922435340506,9.799992655368477
1727704921.683425,-4.898805247530656e-07,4.37386863733518e-07,0.6626231901422,-0.7489529410352446,-2.8821932858028305e-09,-6.382108536817111e-07,-0.48012638227575355,0.18569359906531036,0.2960780096194297,9.799991667349476
1727704921.9624693,-4.878476805304152e-07,4.420765646189952e-07,0.6679701887011924,-0.744188032022862,4.972662972135694e-07,-6.335295250490771e-07,-0.47374966593464257,0.09481050987118399,1.6668267360355251,9.800008037638205
1727704921.9701653,-4.888417939242758e-07,4.4941255469309095e-07,0.6731497980163343,-0.7395061523950475,1.4735237009218628e-07,-6.247179152077392e-07,-0.4638974100662529,0.18939424943764097,0.7508164633256366,9.799990829049046
1727704921.999718,-4.852754063935803e-07,4.525949464783805e-07,0.6782669762190415,-0.7348155611922204,-8.84449586833015e-08,-6.233972784360924e-07,-0.4620720733099748,0.18761106889249124,0.1004248048191879,9.799995632732818
1727704922.0457478,-4.806412219426996e-07,4.5687706591130035e-07,0.6849542695426039,-0.7285860612411674,2.501432749082455e-07,-6.094314560568819e-07,-0.4483012266900571,0.04837341033458876,1.0110932474538943,9.800004552818024
1727704922.1104772,-4.765680606457347e-07,4.592806315305637e-07,0.6897613561393245,-0.7240367888280275,-1.2114211829509804e-07,-5.916260481102831e-07,-0.43949617140645825,0.17472027830135517,0.004802689772753383,9.799998414183918
1727704922.1402068,-4.7240153659081594e-07,4.614788132686966e-07,0.6944796811076409,-0.7195123157585235,-6.600345188240299e-08,-5.824123782189984e-07,-0.43255124556335195,0.13402104403501344,0.14410283749162472,9.799999529774865
1727704922.3895242,-4.6888747280492286e-07,4.6620475551433717e-07,0.7006076020991778,-0.7135467664283842,4.909303328140408e-07,-5.684113697578703e-07,-0.4228510857947433,0.11578025756258147,1.6777304925313845,9.80000847296834
1727704922.393475,-4.6701413375119875e-07,4.7025278231701796e-07,0.704901465081578,-0.7093052407288455,-8.781764508139712e-08,-5.354035692182452e-07,-0.3959118649277337,0.12703199066676646,0.10348545627501916,9.79999604028158
1727704922.4116564,-4.64354113391163e-07,4.7329311122996794e-07,0.7090839398086392,-0.7051240786592232,-4.8465574797142854e-08,-5.306243544469142e-07,-0.39459441285721975,0.19285050342018034,0.2227220076170914,9.799993205592541
1727704922.4541793,-4.5888992277101755e-07,4.753720645954321e-07,0.71459816366494,-0.6995351774473239,-1.3044818830210955e-07,-5.249942165298825e-07,-0.39162282374626833,0.18984188894243395,-0.014884119318465757,9.799998786524176
1727704922.485663,-4.5450884088534153e-07,4.7662984204351765e-07,0.7187583376422937,-0.695259988830979,-1.3058489928941123e-07,-5.320680204645801e-07,-0.3987629388051467,0.20695897290117318,-0.025925326378220682,9.799999101920864
1727704922.51666,-4.511457294434469e-07,4.789354577994295e-07,0.7228569009848005,-0.6909977573756787,-7.749792110530662e-08,-5.224162278881568e-07,-0.390378055124816,0.15656915965187335,0.11075119899900206,9.799995975381444
1727704922.7576492,-4.4715857613284707e-07,4.804472803963763e-07,0.726862883141522,-0.6867826068784526,-1.1309674736337854e-07,-5.14609348926944e-07,-0.3864471614370348,0.17848078066041587,0.008257190695055667,9.799998920417815
1727704922.7995188,-4.421782521650319e-07,4.816590566620657e-07,0.7309912604252355,-0.6823868237162101,-2.6898571452166536e-08,-3.525506179147591e-07,-0.25373158770450477,-0.26798689596318,0.192580684664384,9.800001390867754
1727704922.8302336,-4.399812446864166e-07,4.826982680677041e-07,0.7332564655696291,-0.6799521716267318,-1.2003104221946911e-07,-2.8373237508168484e-07,-0.21117607125684373,-0.06307041229526635,-0.03077277658750152,9.799998581671106
1727704923.0766647,-4.3731082805582056e-07,4.827877616639698e-07,0.7353633632375198,-0.6776730214547272,-1.164571207085745e-07,-2.67909871454374e-07,-0.20641212383369198,0.10033455954781496,-0.006253609054972826,9.799999104829373
1727704923.083036,-4.342721871411016e-07,4.825560965737355e-07,0.737341713064257,-0.6755199465412145,-1.1139173614524347e-07,-1.7024728452350247e-07,-0.13316121378251314,0.03606548031119398,-0.004903204539784001,9.799999059339905
1727704923.1093428,-4.3226240846767763e-07,4.821760768166594e-07,0.7386709391847806,-0.6740662012024151,-1.0883541169009076e-07,-1.6517074124145074e-07,-0.1290930135396867,0.020935251472291184,-0.008692017979286515,9.79999916352907
1727704923.1362007,-4.3031929593685903e-07,4.817968735049056e-07,0.7399637363855617,-0.6726467637875779,-1.0557849862718954e-07,-1.61026433386408e-07,-0.12786436344334529,0.06330873604490551,-0.0023447130656193134,9.79999918587173
1727704923.1916995,-4.278132368204744e-07,4.813070890386109e-07,0.7416213027597353,-0.6708187857331802,-1.0144537861541494e-07,-1.519965117173212e-07,-0.1211814929051305,0.055739540902638,-0.002740198122056294,9.799999220037199
1727704923.221699,-4.2606160859498453e-07,4.808878000372586e-07,0.7426451081512188,-0.6696851822600316,-9.84934954974177e-08,-1.1327582467440002e-07,-0.08868448763401733,-0.05074250994975071,-0.015102875971628005,9.799999289538478
1727704923.4396732,-4.245372946633426e-07,4.803243059831805e-07,0.7435114455723707,-0.6687232090353024,-9.542154188710884e-08,-1.0484223747410523e-07,-0.0860214550004742,0.041102448049801225,-0.001306876339122555,9.799999263326336
1727704923.4424238,-4.225699650120345e-07,4.788550760235985e-07,0.7439356313819219,-0.6682512823481697,-1.0762892110984406e-07,-3.775720630050342e-08,-0.032771073863747974,-0.05290707142874982,-0.0577951234871435,9.800001462229952
1727704923.4688823,-4.2171472872758953e-07,4.782032809912894e-07,0.744268653828015,-0.6678803567470958,-8.546663999047202e-08,-2.0322261905691268e-08,-0.021763996679808734,0.003471746468613397,0.005721986926842845,9.799999005012587
1727704923.5141795,-4.20785422030633e-07,4.773047618251814e-07,0.7444848036027649,-0.6676394065692554,-8.53408537753755e-08,-1.985129474032695e-08,-0.021557601175106873,0.010592524883675918,-6.222236268790983e-05,9.799999331060986
1727704923.5460587,-4.197059704879162e-07,4.76250502231807e-07,0.7447110586745095,-0.6673870234635134,-8.320220855667268e-08,-2.1479660778262367e-08,-0.022720305928184293,0.012192653001975882,-0.002372880616199722,9.79999946129412
1727704923.5928545,-4.182506718824015e-07,4.748436721729395e-07,0.745001467777789,-0.6670628253834414,-1.6205072887662187e-07,-1.928966248253098e-08,-0.0188220257971001,-0.043762533834944474,-0.23767382487258332,9.799998036288587
1727704923.824818,-4.1739244107469695e-07,4.739812192594908e-07,0.7451765130061603,-0.6668672764977907,-7.596742845103193e-08,-1.491104833040831e-08,-0.01733851731159105,0.007428155665250488,-0.0008485571450960234,9.799999425177868
1727704923.854408,-4.1739184959936945e-07,4.7385876855519427e-07,0.7451193955240921,-0.6669310957013572,-7.174504028945796e-08,1.757047800176507e-08,0.0084568040487003,-0.024111882403341136,0.006922038935166059,9.799998979573076
1727704923.9229243,-4.166221556548537e-07,4.725787122750513e-07,0.7449658935589127,-0.6671025539102469,-7.230245676541915e-08,2.5543589942900872e-08,0.014713298814066071,-0.024206805487926284,-0.0025075762274777464,9.799999446301065
1727704924.191225,-4.1610422614870585e-07,4.7161491289039516e-07,0.7448144319049131,-0.6672716553441825,-7.010922903197383e-08,2.6742885117146367e-08,0.01518456684141205,-0.007951348892621161,-6.665867306159834e-05,9.799999453948224
1727704924.1934907,-4.156156188417493e-07,4.7066707942138927e-07,0.7446413152638498,-0.6674648392250558,-6.800512562903189e-08,2.9472533507238053e-08,0.01754497997420242,-0.010588150007251695,-0.00029333014477159056,9.799999471056934
1727704924.2123015,-4.151791462037707e-07,4.697134702065657e-07,0.7444070814569494,-0.6677260643979338,-6.592170244543393e-08,3.7525373600775525e-08,0.02408798657258582,-0.017082557055497657,-0.0008088238529272749,9.799999488820552
1727704924.2581928,-4.14654563890861e-07,4.6845407410277315e-07,0.7440835680505792,-0.6680865540906565,-6.330644670694217e-08,3.760915544853036e-08,0.024231441908891146,-0.012134292340962602,-6.046769006413356e-05,9.799999506067559
1727704924.3174999,-4.1428170902771363e-07,4.6753569742720586e-07,0.7438358992196855,-0.6683622932449524,-6.142273422627033e-08,3.826457318894133e-08,0.025035131935320993,-0.014866315571258646,-0.00041147699478168495,9.79999952206638
1727704924.3470798,-4.1392927290104195e-07,4.666362369741696e-07,0.7435842670647693,-0.6686422345121198,-5.958976318718325e-08,3.8212620448939966e-08,0.025101156139831424,-0.012588915242498342,-6.892819769499086e-05,9.799999535029825
1727704924.5910227,-4.136338538496029e-07,4.65334559314471e-07,0.7429601389381514,-0.6693356646321899,-5.6989452043840235e-08,6.810681966704209e-08,0.048788830849649134,-0.029357546625157147,-0.0010353030886698764,9.799999556800696
1727704924.5945745,-4.1348850347694117e-07,4.6433387641164727e-07,0.742478334651588,-0.6698700788754622,-5.528760542464548e-08,6.691390667852844e-08,0.04787139606004889,-0.023181874361278592,-0.00016672901791891967,9.79999956646457
1727704924.6095448,-4.133472410071926e-07,4.633628347339305e-07,0.7420171523262086,-0.670380895948951,-5.3657439216442785e-08,6.279477062009699e-08,0.044529589079281826,-0.012442005255339578,0.0012215732293963935,9.79999957415332
1727704924.6529567,-4.1315163844572613e-07,4.621233740593399e-07,0.7414232148394023,-0.6710377161507549,-5.157199075123888e-08,6.156558921347271e-08,0.04425168792244652,-0.02202800082938601,-0.00022090248298653516,9.799999596238269
1727704924.6829512,-4.1303036209520214e-07,4.612066535708682e-07,0.7409509531836983,-0.671559144808397,-5.001331496616383e-08,6.497289595746103e-08,0.04721620046941981,-0.02585179855781643,-0.0006066943959823012,9.799999609741343
1727704924.7114468,-4.1060387509451253e-07,4.577287559533293e-07,0.7404780495513685,-0.6720805443785907,-7.422261656646394e-07,6.501954133710833e-08,0.046242953678162994,-0.011544695301950179,-1.9212893356892715,9.799988305680426
1727704924.74151,-4.036493970618025e-07,4.4930077183927664e-07,0.7400320053752965,-0.6725716549333999,-7.201672675605933e-07,5.979594263240767e-08,0.043237792521213916,-0.008081917513980045,-1.9211561940141064,9.800002085731753
1727704925.0018811,-4.07815595522802e-07,4.529693016568465e-07,0.7394801570314212,-0.6731783547889912,5.995624486570545e-07,5.3635017526789595e-08,0.03976823307162431,-0.004341279954213076,1.7309723279979945,9.799997406534152
1727704925.0412135,-4.094860864611601e-07,4.541642489159054e-07,0.7391074606595461,-0.6735875307612395,-7.354336083757253e-07,5.0206725313600994e-08,0.035453848234652335,-0.008620275610686578,-1.9214845480021217,9.799976768419638
1727704925.073099,-4.0249840590969533e-07,4.459008914931613e-07,0.7387650364400753,-0.6739630708973107,-7.135903223091771e-07,4.6155265556202796e-08,0.03310730319946345,-0.005984556885065812,-1.9213636939865297,9.800002108281184
1727704925.3133886,-4.0665540128791244e-07,4.497513050738071e-07,0.7383416675417797,-0.6744268544262279,6.058877844893776e-07,4.112817486764064e-08,0.030463166000528043,-0.002794063026145737,1.7307706893571,9.799997451252196
1727704925.331065,-4.120289638261174e-07,4.551343674923486e-07,0.738084629706416,-0.6747081438598216,3.263768021897588e-07,3.307267431014355e-08,0.017053653573031766,0.1582243731709668,1.028332022887936,9.79999316096402
1727704925.3506045,-4.1250178320320795e-07,4.484572237963584e-07,0.7333333821329443,-0.67986921584161,-3.026063678299375e-08,9.034869694892502e-08,0.07198985459142783,-0.07957163552680319,-0.00713814780049755,9.799999809215652
1727704925.3622215,-4.124115441009214e-07,4.553942845198443e-07,0.7380976736257486,-0.6746938744259358,-3.721406060869351e-08,-3.5528577114052603e-10,-0.0034780298688033523,0.0175971953889007,0.01237155093723385,9.799999238153227
1727704925.4190476,-4.1281836486880207e-07,4.473559902755574e-07,0.7323260957211853,-0.6809541023632905,-2.901024452542269e-08,9.590389200236647e-08,0.07683825750726055,-0.08727291057182922,-0.007936612213521677,9.799999795890665
1727704925.442445,-4.121245880007605e-07,4.5507495938585887e-07,0.7381671961203042,-0.6746178107428763,-3.875446535031923e-08,-4.179388048702818e-09,-0.005816386645138408,0.0044543685426053315,0.0037698177094952724,9.799999550228089
1727704925.4472787,-4.1309810536553375e-07,4.4651143100475593e-07,0.731528248088655,-0.6818111338545104,-2.8023825434464077e-08,9.9891982626076e-08,0.07820752252152766,-0.04003878900988145,-0.0009264586317485025,9.799999800222624
1727704925.4640372,-4.119154986615061e-07,4.5486353659258626e-07,0.7382255483363099,-0.6745539561689472,1.9220387408937614e-08,-4.299341685662121e-09,-0.00559414118390401,-0.0006536907264651603,0.1605055352848316,9.800000666553244
1727704925.4973707,-4.1156321664034604e-07,4.545450643868948e-07,0.7383418809854926,-0.67442662075457,-3.8134669701977444e-08,-1.2254346691837507e-08,-0.012202660343276842,0.011202942794433356,0.0017736835561090862,9.79999967835021
1727704925.697006,-4.1095179770993523e-07,4.538641233605503e-07,0.7381690355057857,-0.6746157980807173,-7.194919969104819e-08,4.133118233710052e-08,0.04626957598473131,-0.41448472638197886,-0.1533224583797596,9.799999936092696
1727704925.7213032,-4.133656896772779e-07,4.4569675481086994e-07,0.730813422168498,-0.6825772791252277,-2.7202785204647316e-08,8.417816079196324e-08,0.06413379753247249,0.009461227003728239,0.0056627584515089304,9.799999781535817
1727704925.7236345,-4.1355620639136623e-07,4.4496606476126087e-07,0.7301670517320085,-0.6832686708496281,-2.652454023861326e-08,8.045301354645282e-08,0.06297492963178349,-0.030513986994591413,-0.00035395139958856983,9.799999810411784
1727704925.7271957,-4.114545376337338e-07,4.5298022596589866e-07,0.7370903265864477,-0.6757942367705642,-3.4590998828460454e-08,1.086815777753185e-07,0.08413133320758065,-0.051863800052174135,-0.00049871794419515,9.799999668509223
1727704925.7570853,-4.11739123189629e-07,4.52011512384213e-07,0.7362343862185267,-0.6767266276341248,-3.4192999074289e-08,1.0926361076656755e-07,0.08440936092405138,-0.042277313064258,-0.0009256934870292528,9.799999754796982
1727704925.7616282,-4.138463037697075e-07,4.4398132284147865e-07,0.7292394148177819,-0.6842586322991114,-2.5436790297844125e-08,8.683318967869053e-08,0.06831605666399182,-0.03519486157915467,-0.0007491710764050732,9.79999981928658
1727704925.7844465,-4.120350016386717e-07,4.510538859419477e-07,0.7354307049315414,-0.6775999396720184,-3.284607572836246e-08,1.0002275337935331e-07,0.0685382022423576,0.18018724866225982,0.03091418813577554,9.799999751045773
1727704925.7910142,-4.139377717611694e-07,4.4308656909693315e-07,0.7285235260220283,-0.6850207821899007,-6.739108471632543e-08,8.908844716449493e-08,0.07244339172964126,-0.09162042241511698,-0.12693773127579414,9.799999129631692
1727704925.82805,-4.122446571765207e-07,4.4997150020618353e-07,0.7345892922179359,-0.6785120277182854,-3.2042390219978905e-08,7.887385978758857e-08,0.05863427983868332,0.023545737893288593,0.007284837960372532,9.79999976727973
1727704925.864135,-4.123601026526442e-07,4.49218429035987e-07,0.7340056828148063,-0.6791433262538903,-3.120129368161185e-08,7.414943183017722e-08,0.057158120337801294,-0.027374554861825214,-0.00022728946218128447,9.799999777077899
1727704925.864473,-4.141971745057649e-07,4.4230348297890387e-07,0.7277644914214589,-0.685827124737494,-2.3529226980368292e-08,9.356684271843714e-08,0.07399124696381812,-0.037980823361705864,-0.0011947795078561183,9.799999844923601
1727704925.9042225,-4.1474637077714923e-07,4.4145798006755386e-07,0.7267374371672113,-0.6869153495295227,-2.2140631708461366e-08,9.492434285824707e-08,0.07521213328234168,-0.038399815094837746,0.0012945024305639145,9.799999740208358
1727704926.1351714,-4.144999820225892e-07,4.40187148031215e-07,0.7260854678105275,-0.6876044600160776,-3.975002352395605e-08,7.254659805907597e-08,0.0550530763849826,0.03200022944910851,-0.04378459943632261,9.800002161415605
1727704926.1400461,-4.1468038781045783e-07,4.395898751919434e-07,0.7255166275142323,-0.6882046375897285,-2.026621413915919e-08,6.943075235290363e-08,0.05513674193728078,-0.027332231114282794,-0.00038805076112696004,9.79999984552123
1727704926.1817465,-4.149295092504976e-07,4.388057701647187e-07,0.7247572562814776,-0.689004295681079,-1.9464134055637443e-08,6.928221113589624e-08,0.05513857653767306,-0.027268901982765163,-0.00036954875981094016,9.799999851180976
1727704926.4614303,-4.1482215041404937e-07,4.3780488707745863e-07,0.7239759441993432,-0.689825218602731,-2.635423944347662e-08,1.0658050526513388e-07,0.09084346027558408,-0.18199190417860878,-0.044484819764521524,9.800001651026388
1727704926.4644375,-4.1528967486408376e-07,4.3698941614581285e-07,0.7229997493946138,-0.6908482918665735,-1.699602493281335e-08,1.181140888361838e-07,0.09468122303556842,-0.049440838703984004,-0.0016512892191018439,9.799999865511788
1727704926.48215,-4.1525542702720867e-07,4.35632666588099e-07,0.7220279090999201,-0.6918639306109514,-3.388706776713092e-08,1.1614581120842769e-07,0.09301117422323396,-0.04033232950178704,-0.052328401559708346,9.800002204169033
1727704926.5260327,-4.157946892839623e-07,4.3446953032619227e-07,0.7207396092436195,-0.6932058970226617,-1.796162016651695e-08,1.1575283057170926e-07,0.09316573169208342,-0.04613447348815772,-0.012030549651362481,9.800000356973724
1727704926.5569344,-4.1629281357045744e-07,4.336962939251603e-07,0.7197699381714554,-0.6942126735405352,-1.3613231610502612e-08,1.1566585498114202e-07,0.0931895904192763,-0.04528304161477298,-0.0011374755334077494,9.799999875071002
1727704926.600974,-4.1643419642007943e-07,4.3258090205619006e-07,0.718829838694418,-0.6951860635845604,-1.3977935643229937e-08,1.1141205745004761e-07,0.08986248283782484,-0.04084711395127901,-0.005495387610997348,9.8000000944236
1727704926.8547082,-4.152227294646452e-07,4.2975198441460975e-07,0.7177190449854922,-0.6963328029503965,-1.7618488818888528e-07,8.663247311275838e-08,0.06657370673156819,0.0564302590949101,-0.45345474990425333,9.80000430634137
1727704926.8585505,-4.155025594238175e-07,4.2915520674572864e-07,0.717046390546251,-0.697025447027751,-6.635479569961804e-09,7.871137367697291e-08,0.06410483071408933,-0.028095239226740152,-0.0015288709698918553,9.799999941498067
1727704926.8859837,-4.157005478225131e-07,4.28514292678926e-07,0.716419257972243,-0.6976700128328178,-1.1297589909910924e-08,7.09762455390167e-08,0.05714508333355243,-0.006321065180080146,-0.013263174936480392,9.800000591648242
1727704926.925077,-4.1131235106522233e-07,4.229930669884142e-07,0.7156414091429003,-0.6984678757964576,-6.921130437055062e-07,6.725399383780552e-08,0.05415160449624244,-0.010291247975518138,-1.9209709696335,9.80000229426633
1727704926.9886823,-4.045576645971099e-07,4.1536634036026154e-07,0.7150987191358682,-0.6990234773524453,-6.715027410828326e-07,6.155727959685907e-08,0.05060960320149373,-0.006433319319114076,-1.9208243632439252,9.800002254694443
1727704927.01853,-3.979778373288427e-07,4.079920619675636e-07,0.714591572510498,-0.6995419104647332,-6.515029216821953e-07,5.627812492811462e-08,0.04723772917247913,-0.0030341418547816944,-1.920684465454319,9.800002215821612
1727704927.2581537,-3.9617530929636737e-07,4.0557109669272446e-07,0.7141179424454359,-0.7000254025942027,6.854439277766962e-07,5.00714695147723e-08,0.04413126246456418,0.0030707405823261597,1.7316281025285682,9.800024040792243
1727704927.273657,-4.05884020802537e-07,4.147743045536937e-07,0.7135313629997828,-0.7006232896609527,6.584043117104314e-07,4.7218716826431124e-08,0.040576350831266275,-0.00023609367592353502,1.7313180601006757,9.799997762581556
1727704927.3032584,-4.118957197502926e-07,4.203952004479438e-07,0.7131372651356288,-0.7010244225949117,3.4759391038546685e-07,4.323594829306889e-08,0.033781776133049,0.05782537286278007,0.9322648588966381,9.799992945407757
1727704927.569276,-4.0997793697530433e-07,4.180204643789021e-07,0.7128024883270788,-0.7013648213550361,-6.830318879344402e-07,3.828310548296815e-08,0.031206414117567756,-0.004857774763644706,-1.9213250943862026,9.799988349774864
1727704927.5772045,-4.093173279074707e-07,4.1678368244985705e-07,0.7123228913050568,-0.7018519064036679,1.9414397045135314e-08,4.055928016258756e-08,0.03447584413157909,-0.01373715518620445,-0.0025554181561561018,9.800000013507102
1727704927.604992,-4.0932581683117087e-07,4.163878234968001e-07,0.7120054252691913,-0.7021739630511067,1.87868649298638e-08,3.4936330485549595e-08,0.029633367437852203,-0.007354637155491113,-0.005086941984872612,9.800000158982124
1727704927.634366,-4.0972508333782454e-07,4.1642062266410416e-07,0.711694217432472,-0.7024893884414481,2.0178009069630264e-08,3.4636458817755075e-08,0.029529372434218805,-0.01098630241341101,-0.0001003948780282136,9.799999914629009
1727704927.6791172,-4.0994380976650026e-07,4.161756546818762e-07,0.7113125494381373,-0.7028758475089866,2.0009490287994373e-08,3.151978293202684e-08,0.026923017544703536,-0.009475478287174328,-0.0005639911226823778,9.799999942436306
1727704927.7191331,-4.1134053098836865e-07,4.1723886419269894e-07,0.7110081216133681,-0.7031837960302317,2.1785059635495338e-08,3.4131957539559346e-08,0.029097732094558314,-0.012725983739605857,0.01358862057217666,9.799999293650407
1727704927.9579985,-4.111487793236013e-07,4.1666517434967384e-07,0.7107867488175322,-0.7034075615921821,-1.422058193405234e-07,2.182031070732957e-08,0.004679945085990087,0.3310188137543769,-0.3922916582246479,9.799997287789987
1727704927.961255,-4.0917160125577265e-07,4.1487620443858573e-07,0.7111999782906742,-0.7029897516173368,-1.760350636532737e-07,-5.86483710308684e-08,-0.06057306996947564,0.31210865658161135,-0.5063039312296913,9.800000584698061
1727704927.9989653,-4.066699848592463e-07,4.1379669520955647e-07,0.7125351192419148,-0.7016364470625607,1.9889275643622037e-08,-1.2507020049796263e-07,-0.10573046702737847,0.0675070375939875,-0.020711514028366258,9.800000979294236
1727704928.0280118,-4.059278248154798e-07,4.1444356364361386e-07,0.7136487200802702,-0.7005037504021341,-6.674587568137194e-08,-1.2657486791114744e-07,-0.10478973592699264,0.012416622578482946,-0.266469279125909,9.799998375801824
1727704928.1019976,-4.05480435742428e-07,4.1536520561672767e-07,0.7147427206867917,-0.6993874771719222,2.7591693179647887e-08,-1.2455062394556884e-07,-0.10412802944708892,0.03513468982622512,-0.002287235406306357,9.799999964209885
1727704928.1409845,-4.058578389910954e-07,4.175054705251708e-07,0.7159893266829176,-0.6981112261493889,1.227323321990786e-07,-9.034656919987154e-08,-0.06764296809436121,-0.15810251384132723,0.24463700453648327,9.799998514588594
1727704928.3454273,-4.056288075784361e-07,4.181496468257306e-07,0.7165458065524144,-0.6975400397911294,-2.6407622655946994e-09,-6.005067985830452e-08,-0.032621433497587254,-0.40236508749497235,-0.12963765362478114,9.799999501276028
1727704928.34857,-4.057397284642797e-07,4.1861681135842787e-07,0.7167745567583222,-0.6973049797495862,2.274285449691102e-08,-2.5330356547353296e-08,-0.020583793758879483,-0.002227873658130942,-0.0007550364165978899,9.799999911200374
1727704928.3843312,-4.058636665280336e-07,4.191097819523804e-07,0.7170582199492966,-0.6970132776373815,2.163029266149491e-08,-2.4529208598056937e-08,-0.02032043733014431,0.007012438542789067,-5.787643011401371e-05,9.79999993912159
1727704928.66382,-4.0576219186553216e-07,4.1928093318908727e-07,0.7172470372669966,-0.6968189775912933,-3.226688577097559e-08,-2.0995112744747816e-08,-0.013548258062276242,-0.08783471011007482,-0.16061181903336366,9.799999069343242
1727704928.6705644,-4.0587053219338307e-07,4.1955729285214564e-07,0.7173647811581587,-0.6966977614099004,2.0825386690923495e-08,-1.3419749960103908e-08,-0.010993902126305402,0.0018117218812199899,-0.0007135255524038026,9.799999962202376
1727704928.6961315,-4.057054580120129e-07,4.1952062667069724e-07,0.7174601155477072,-0.6965995855568176,1.9680711544924654e-08,-1.0873972227133079e-08,-0.008899515210657731,0.0014137517582601391,-0.004588288706423116,9.800000140689255
1727704928.7381604,-4.0587382930242437e-07,4.1985391013374135e-07,0.7175843747212579,-0.6964715824465204,8.956442837970244e-09,-1.0845537225507492e-08,-0.009102091348330654,0.006488630621716988,-0.031341056291508566,9.799999756933843
1727704928.7652135,-4.060161761050292e-07,4.2012411501190915e-07,0.7176803275493181,-0.6963727072827898,1.9923098962580262e-08,-1.1128142739343704e-08,-0.009195210920466598,0.0032264344011451885,-8.086727925399415e-05,9.799999951779283
1727704928.7957888,-4.0639634887838055e-07,4.2064234743288543e-07,0.7177635844543694,-0.6962868926174562,8.799828657922785e-08,-9.312052947367463e-09,-0.005519285306351817,-0.04820051072508823,0.1832261623608706,9.800001083722565
1727704929.0399158,-4.0664581370169274e-07,4.2098404935833276e-07,0.7178226221527293,-0.6962260287618075,1.7857833596365967e-08,-5.03939261492635e-09,-0.004112701258715808,0.001119565988927387,3.89053341212149e-05,9.79999994825246
1727704929.042195,-4.06800276027207e-07,4.211995718360527e-07,0.7178654940807844,-0.6961818242440752,1.7301578864635717e-08,-5.010643428497298e-09,-0.004104422440100617,0.0014101006472092125,7.338156234726372e-06,9.799999952926816
1727704929.0710824,-4.069493658427394e-07,4.2140941178786504e-07,0.7179083524226834,-0.6961376282901284,1.6786897608744104e-08,-5.006010164072701e-09,-0.004104244303464726,0.001416352647125473,8.067430772756928e-06,9.799999954326921
1727704929.119783,-4.0649256227642726e-07,4.210158290656536e-07,0.7179354616629375,-0.6961096701572834,-1.6947903701366302e-07,-3.529063026988287e-10,0.004524094773811673,-0.11982664344141458,-0.5310410615470018,9.799996906506278
1727704929.1982439,-4.0661364331271116e-07,4.210592764511868e-07,0.717857819839246,-0.6961897374245775,1.7265936388885178e-08,9.153183746985258e-09,0.007782402393732025,-0.005181602000291761,-0.0018086148772319048,9.80000002327778
1727704929.2294786,-4.0596008092342324e-07,4.202839020541584e-07,0.7177582403890064,-0.6962924014760867,-2.3726412548390754e-07,1.2237083296198034e-08,0.01292212303441676,-0.07434839919100493,-0.7153312011956955,9.79999576875674
1727704929.510157,-4.0611211586985114e-07,4.2025776850489335e-07,0.7176053460161224,-0.6964499747783324,1.896629133847681e-08,1.7630984590288045e-08,0.014841876872612451,-0.006408793170859542,-0.0022100626529424675,9.80000004878064
1727704929.5136282,-4.032765817130545e-07,4.1696608024458063e-07,0.7172520326449457,-0.6968138357311492,2.3712586305581703e-08,3.57534344258802e-08,0.03072130403801825,-0.022059716418638086,-0.01506879201541148,9.800000555484456
1727704929.540955,-4.039700684961097e-07,4.172814340997643e-07,0.7169320692150077,-0.6971430327635427,2.8111124334374166e-08,3.6256315700881676e-08,0.030590494891502607,-0.009220322653244094,0.002717287429420827,9.79999983351858
1727704929.8243794,-4.0444662809324826e-07,4.173737505402904e-07,0.7166121320479298,-0.6974719006536266,2.6285100880998547e-08,3.625213721043364e-08,0.030587545910503472,-0.009327388859675005,-9.966072792761814e-05,9.799999960965375
1727704929.826556,-4.035470793330956e-07,4.1577589163175164e-07,0.7160197930608555,-0.6980799781864208,2.8782832752751195e-08,5.1395695985033525e-08,0.043624521553531796,-0.015532756505456047,-0.003782879361562196,9.800000104842955
1727704929.8616421,-4.041353166355314e-07,4.1581439799654324e-07,0.7155621175347283,-0.6985491077575572,2.904568199333814e-08,5.1630989462241524e-08,0.043701544365104546,-0.012809203648309824,-0.0002551563079574686,9.799999963666503
1727704929.8922114,-4.047152761773471e-07,4.1584373320607e-07,0.7151040331706275,-0.6990180410710192,2.818789162995344e-08,5.1645199709706246e-08,0.04370320055242181,-0.012750722375360594,-0.00023769605009386262,9.799999964335289
1727704929.9351306,-4.054747262269921e-07,4.158683915631889e-07,0.7144927730903672,-0.6996428211604117,2.7079455077383795e-08,5.165685719728766e-08,0.043703236722035646,-0.012749445804359745,-0.00023747079715908065,9.799999965735136
1727704930.0012372,-4.05031388398124e-07,4.148429005285045e-07,0.7140158858249822,-0.7001294985852472,-7.073978034616963e-09,5.457415098220052e-08,0.04660328251479104,-0.022087324451395832,-0.10101491138169284,9.800004449425549
1727704930.269765,-4.0561113692673317e-07,4.148339539913475e-07,0.7135240341296828,-0.700630753477869,2.829668203136725e-08,5.523415818812922e-08,0.04684315239797348,-0.013466212420409006,-0.0005821011546151008,9.799999979905426
1727704930.274892,-3.9898572411272505e-07,4.074905468720063e-07,0.7130541592898277,-0.7011089543852309,-6.520949202824819e-07,5.214628606860427e-08,0.04363859808080847,0.0013753339582349621,-1.9204541116232112,9.800002293885717
1727704930.2914603,-3.904227553819089e-07,3.9807224848380814e-07,0.7124775354718167,-0.7016949204944377,-6.263249087180892e-07,4.6099000856837646e-08,0.03962086351263144,0.004564180243026466,-1.9202847472813556,9.800002240796953
1727704930.3208792,-3.8419943312257305e-07,3.9127690145858155e-07,0.7120803600256442,-0.702097970987987,-6.076660087863265e-07,4.197025286385309e-08,0.036792950199528614,0.006544169191499732,-1.920161936993795,9.800002202339853
1727704930.4086978,-3.781428221517994e-07,3.847022639334359e-07,0.711711672055012,-0.7024717046688557,-5.895608979189878e-07,3.816591608769087e-08,0.03411867632236202,0.008203484947335998,-1.9200418786490177,9.800002165049648
1727704930.4486265,-3.7559040433928696e-07,3.8174210886504336e-07,0.7115081387483432,-0.7026778554178162,9.676861881240637e-08,3.439922205103536e-09,0.001402219645158626,0.051081609712448496,-0.052380004940883504,9.800002611586674
1727704930.6714764,-3.7680051997630327e-07,3.8296960960929606e-07,0.711506287146437,-0.7026797302831519,1.1486147658779485e-07,-4.1259300829128545e-10,2.996239783376679e-05,0.0010920954279592205,9.670701220914434e-07,9.799999961553125
1727704930.6733558,-3.7798258913213e-07,3.8417673052809247e-07,0.7115062475750984,-0.7026797703515536,1.115055666654301e-07,-4.796457730502628e-10,6.403951948217993e-07,2.3362566962486556e-05,1.3493111836718046e-05,9.79999995600031
1727704930.6992886,-3.7950418306158063e-07,3.857308033530013e-07,0.711506246715961,-0.7026797712214812,1.0711192062962016e-07,-4.627297029460418e-10,3.798813789804995e-09,1.5867599299585212e-07,1.0652839600643176e-05,9.799999957706417
1727704930.9800918,-3.8060590212675586e-07,3.868560372032248e-07,0.7115062467109416,-0.7026797712265624,1.0393094972989417e-07,-4.4865829084488705e-10,8.134168180441934e-11,2.3310349893183045e-08,1.0663513228808767e-05,9.799999958965975
1727704930.983,-3.8154834579927565e-07,3.8807887685966667e-07,0.7120830916885853,-0.7020952004756402,1.0103465351122193e-07,-7.200889014264285e-08,-0.0814711888000738,0.37123671805400066,0.05034829238689195,9.79999990331983
1727704930.9978569,-3.81984664050122e-07,3.8973365087886015e-07,0.7134760408815825,-0.700679626568123,9.79251484992031e-08,-1.565866872045807e-07,-0.15725407210046086,0.3456788693040748,0.04278173548664578,9.799999912826193
1727704931.0407803,-3.820225762809966e-07,3.9241810257803684e-07,0.7158730874599204,-0.6982304223179489,9.474665003032175e-08,-1.903783957676193e-07,-0.17274628866061922,0.003963005395155559,-0.0036646095399224146,9.799999964729192
1727704931.0729587,-3.819610577511873e-07,3.9442282115755763e-07,0.7176807777637773,-0.6963722432923918,9.190828817822025e-08,-1.9107964028579903e-07,-0.17283678655964949,0.0006653477898650404,-0.004161556614490242,9.799999968391079
1727704931.1200476,-3.841441707612779e-07,3.9876819623551077e-07,0.7194639769663673,-0.6945297587918259,7.468079902009971e-07,-1.8966843854659825e-07,-0.16714096346421553,-0.08081730121367835,1.8082606675186421,9.800010927935693
1727704931.4012117,-3.925657836616123e-07,4.101749530943053e-07,0.721626174687663,-0.6922829363817428,6.837186959277735e-07,-1.7469975898475136e-07,-0.15033077433137867,-0.04093926880843577,1.7182843946952693,9.799997895548664
1727704931.40323,-3.856792275802541e-07,4.0482340129980466e-07,0.7230875060482711,-0.6907564394173816,-4.509001003054768e-07,-1.5692597055659944e-07,-0.13226738975102842,-0.1489446154147975,-1.4567464786273157,9.80000522116616
1727704931.4141893,-3.832085700071978e-07,4.036365319558296e-07,0.7239932697720538,-0.6898070348470363,-1.4560689051356122e-07,-8.744928490090882e-08,-0.06428897560446395,-0.3227119059799073,-0.6531042637025523,9.800000975620252
1727704931.4607468,-3.820749865312164e-07,4.030215001189163e-07,0.7242246303430139,-0.6895641266801924,6.224759907005787e-08,-4.229388813729632e-09,-0.0014600441041400546,-0.05323258751908174,-0.05149562134112288,9.800001970361803
1727704931.5314648,-3.8272335245423853e-07,4.0400093821307207e-07,0.724805080576427,-0.6889539862503804,7.62100866881064e-08,-7.52305351177384e-08,-0.08282933324565664,0.3707812268632911,0.050237348745042334,9.799999912149348
1727704931.5643656,-3.823481166460916e-07,4.0488758441218973e-07,0.7261627783823293,-0.6875228136518422,-7.331065935328435e-08,-1.583243157880715e-07,-0.151978665785179,0.2539645866135344,-0.3774434622412747,9.799997479123082
1727704931.5942214,-3.805125045890552e-07,4.04983437535189e-07,0.7280781207295887,-0.6854941649019063,-7.687150955681514e-08,-2.154770027649985e-07,-0.20266402525410948,0.23090414909732196,-0.40072517122201423,9.800000493988785
1727704931.8150692,-3.860144371440003e-07,4.1432858622444805e-07,0.730931973090546,-0.6824503283856199,7.213175525614652e-07,-2.301656743597542e-07,-0.1987652211115324,-0.08857079279496721,1.8039370329180346,9.79999779955816
1727704931.8300662,-3.875510351026671e-07,4.185867986451803e-07,0.7331782642581477,-0.6800364937406553,1.2613215461173716e-07,-2.6011714359489674e-07,-0.2373447751002698,0.28078595128310313,0.2399211647088586,9.799997276539296
1727704931.87814,-3.8776445334127744e-07,4.2204658839556064e-07,0.7359097085046649,-0.6770796858038576,1.6693998716875204e-07,-3.174106027318464e-07,-0.2824282514212128,0.20416749323246025,0.35001125131500943,9.799999158355975
1727704932.1375432,-3.8178154982487216e-07,4.203533531676936e-07,0.7397645833450126,-0.6728657824767561,-1.391015605642986e-07,-3.290913002754904e-07,-0.2950832194328173,0.19477131053444877,-0.5214420538883281,9.800005015068493
1727704932.1555579,-3.789033009095519e-07,4.2112416679415673e-07,0.7430334379938609,-0.6692542939889905,-8.98516144574483e-08,-3.77500821157204e-07,-0.33957402655120755,0.2167057528116344,-0.396968705562634,9.800000386638903
1727704932.180813,-3.757639722403688e-07,4.2214805963913835e-07,0.7467263970963992,-0.6651313313016544,-8.787389916897832e-08,-4.265229508191557e-07,-0.3837137390801203,0.21302460078769703,-0.40651686873458565,9.800000469279949
1727704932.221143,-3.728005817393923e-07,4.2557934345699675e-07,0.7520033955831633,-0.6591592319243298,6.11075998159286e-08,-4.550586262221197e-07,-0.4008137350444319,0.012172122016572199,-0.025380923773277168,9.800000095649512
1727704932.2775562,-3.708032064575049e-07,4.285027896390186e-07,0.7560276414562204,-0.6545396896703999,5.531491394502477e-08,-4.6700984291610547e-07,-0.4230873754159378,0.31059586517117643,0.001760971792634582,9.799999896499283
1727704932.3066812,-3.685302378617362e-07,4.3167801569496365e-07,0.760566748788088,-0.6492597482037487,7.614499658130918e-08,-5.387548284071639e-07,-0.48062596850945377,0.19585354913771122,0.03531758850122961,9.800000370955976
1727704932.5484865,-3.658679609056749e-07,4.350379835600883e-07,0.7654911457468064,-0.6434464280598023,5.1810937262562065e-08,-5.903878157527411e-07,-0.5298363427449795,0.3124850693938763,-0.022040450118285673,9.80000000394277
1727704932.5598195,-3.617932504108824e-07,4.401344010375273e-07,0.7728059827244608,-0.6346423505132288,6.354916894922742e-08,-6.662769185437799e-07,-0.5842659542320259,0.05364264674041673,-0.03451312811229114,9.799999864661629
1727704932.5890179,-3.5844684159393343e-07,4.440203815559234e-07,0.7783544826663316,-0.6278250547030612,5.944005337562954e-08,-6.716869288735981e-07,-0.586297830741465,0.009612228353241709,-0.04764077575766815,9.80000003130298
1727704932.6527145,-3.5503468021571876e-07,4.478634710202373e-07,0.7838466653104273,-0.6209544309217835,5.7614113630113516e-08,-6.728981377056759e-07,-0.5864200283848326,0.006959889549523081,-0.048115035700483866,9.800000034691449
1727704932.6916783,-3.503699168260746e-07,4.5286232451845506e-07,0.7911425144652336,-0.6116318515294143,4.3366943379441914e-08,-6.848366157087264e-07,-0.6083490225868493,0.31443372100307687,-0.04301179086774098,9.799999820218375
1727704932.72801,-3.4660751196664483e-07,4.56872038121074e-07,0.7970047368974222,-0.6039730535071426,6.112303271034222e-08,-7.470056594600419e-07,-0.6524792642144744,0.09576675012820575,-0.03448996497821828,9.799999726528277
1727704932.9279783,-3.4244406768800036e-07,4.6085300369191955e-07,0.8030955318758742,-0.595850288814797,4.027821887632129e-08,-7.909768278452664e-07,-0.6987675308144571,0.31650804252954734,-0.07081228240385833,9.8000000643017
1727704932.945618,-3.3639751047852363e-07,4.6687020206371105e-07,0.8119036640215566,-0.5837914356583523,7.085337223760269e-08,-8.792448903584722e-07,-0.7648194012743276,0.0985612387541485,-0.035139755265100506,9.799999251577814
1727704932.9784422,-3.3146342719759544e-07,4.71448066303614e-07,0.8185752525405721,-0.5743993000760068,5.7068566051343855e-08,-8.888755198632574e-07,-0.768610203056376,0.016889247160523035,-0.0814997096824328,9.800000064411357
1727704933.2526448,-3.300385670444522e-07,4.811668727966782e-07,0.8250807270037722,-0.5650148616864745,6.864613414098415e-07,-8.844673178634133e-07,-0.7537848080419008,-0.091520987823206,1.6750827628395668,9.799997899905748
1727704933.2575307,-3.2901845847530797e-07,4.915005653880708e-07,0.8312127632810564,-0.5559544425205366,4.124929523834318e-07,-8.580534224294033e-07,-0.7108541700941633,-0.22798885730110818,0.9575506597630402,9.799997009496934
1727704933.2989504,-3.265241008927369e-07,5.028101422017443e-07,0.8385609453437725,-0.5448078018382254,2.9635004139688827e-07,-7.847874475783133e-07,-0.6408540290454857,-0.14327049862258492,0.7159848524636552,9.799997116556977
1727704933.3287234,-3.2234238297563417e-07,5.070602635181785e-07,0.8436370829101857,-0.5369138407029859,3.2234158251678834e-08,-7.546614539585747e-07,-0.6190887408627131,0.015500456169093674,0.027374220509302164,9.799997692306217
1727704933.3684855,-3.174613255336338e-07,5.099339016166095e-07,0.8485342822228857,-0.5291404084854334,-1.457889608679059e-08,-7.413968326104939e-07,-0.6093867524721525,0.04151584824642198,-0.09487548209668861,9.800000110728348
1727704933.4121628,-3.124452228736998e-07,5.15626050068388e-07,0.8546394165778252,-0.5192219830006729,-1.6176395039959364e-08,-7.034256085817387e-07,-0.5758144991624377,0.04229803820080265,-0.07714838214064171,9.799999547142354
1727704933.649303,-3.090883036096136e-07,5.20199026701759e-07,0.8588873142535132,-0.5121646038277349,2.425086814130462e-07,-6.568726316287621e-07,-0.5260141726243677,-0.23594952402918856,0.6189505064465833,9.79999983760612
1727704933.6553786,-3.065784902330059e-07,5.251290315787225e-07,0.8625334465743267,-0.5060000529053756,1.8884016815377525e-07,-5.71989328419711e-07,-0.4528939492718346,-0.2648212248926585,0.501663203250866,9.799999268159695
1727704933.6961694,-3.0214126516636237e-07,5.280853515538041e-07,0.8667199445387221,-0.49879508592048516,-2.3448123415113863e-08,-5.008796893056878e-07,-0.40573803885811444,0.02043345458520282,-0.02772251466978529,9.799999981640688
1727704933.7902868,-2.990418144259581e-07,5.302091685601982e-07,0.8696641196359371,-0.49364391925504303,1.1950598484966548e-07,-4.818642105800846e-07,-0.384632972491494,-0.13597895838449855,0.34859917502301024,9.800002505945542
1727704933.8296566,-2.959094426573052e-07,5.318169533528053e-07,0.8724204560863353,-0.4887561230324794,-2.0618127501358898e-08,-4.5726274306895293e-07,-0.37111329625237643,0.0326511382248663,-0.010015218910897307,9.799999975105813
1727704933.8510964,-2.938421739566845e-07,5.346602878656695e-07,0.87472984763582,-0.48461086827953337,1.0860164537712481e-07,-3.7449155459996385e-07,-0.2943264166102241,-0.2163658678680902,0.33087219128699175,9.799999037553683
1727704934.0685153,-2.8721344951712267e-07,5.2993623222668e-07,0.8774507403436465,-0.4796667575202842,-7.191136121303238e-07,-3.378753169082926e-07,-0.2749743161467397,-0.02231137450084983,-1.9505453479718347,9.800002490738995
1727704934.081881,-2.800280047742501e-07,5.218205804060401e-07,0.8793436963005031,-0.476187635051791,-6.976817665526477e-07,-3.1110037598631297e-07,-0.2585512650563919,-0.04247049946407446,-1.948531784432824,9.800002443509468
1727704934.11483,-2.7474839013938613e-07,5.166854435085939e-07,0.8810122553935288,-0.47309344303854506,-2.657409638540708e-07,-2.6425441714758203e-07,-0.2130451322971707,-0.31884542037055535,-0.8334965803175362,9.800004603388027
1727704934.3901894,-2.709465893723745e-07,5.139140104392766e-07,0.8824373031252799,-0.4704300224822449,-2.0119901062008194e-07,-1.4644766655146074e-07,-0.11445137838862346,-0.3325320600031257,-0.67327710826605,9.800000896827614
1727704934.4078195,-2.689279717670183e-07,5.117656985746262e-07,0.8829134478045965,-0.4695357746598929,-1.8426903483468012e-07,-6.332776379588784e-08,-0.044481687661485,-0.3201081265870091,-0.6383179174038904,9.800000843692283
1727704934.4319875,-2.6814848682813124e-07,5.106727292234437e-07,0.8829832197783081,-0.46940455216113874,1.548854154235389e-08,-1.4389619232386136e-09,-0.0016911926435862533,-0.061659604734333975,-0.0620700001344555,9.800002418352399
1727704934.4788551,-2.684628601235545e-07,5.112653815603395e-07,0.8831794297587666,-0.46903528102973896,3.374707593074205e-08,-4.2702341564363395e-08,-0.055090749567373594,0.38018539560000986,0.05232672106656751,9.799999925212562
1727704934.5470407,-2.681347144043621e-07,5.12000692854373e-07,0.8839328942511122,-0.46761377060616804,3.233660538405839e-08,-1.3431197561651633e-07,-0.13271552101445494,0.3539309494688634,0.04553801915577388,9.799999933670742
1727704934.5787766,-2.6720519599434464e-07,5.13031346349459e-07,0.8852008756627002,-0.46520899574885055,3.104656373778053e-08,-2.196628190714451e-07,-0.20492046026349905,0.3297124252319431,0.0365909181462139,9.799999944592667
1727704934.833923,-2.674125869106128e-07,5.175995350097595e-07,0.8868563367263833,-0.462045277010728,6.875943348287901e-07,-2.8144358964142116e-07,-0.23956831851461224,-0.10137056847517056,1.7982597789705326,9.800009280976523
1727704934.8538156,-2.670621551601385e-07,5.232834220775477e-07,0.889289228389427,-0.45734523969337687,1.596006713048477e-07,-3.2621852568674616e-07,-0.28672120692650227,0.22344259048362766,0.4145727410896831,9.799999305466509
1727704934.883761,-2.6551906868749087e-07,5.260855920872727e-07,0.8914299135352443,-0.45315859172501594,4.974438899477948e-08,-3.7611274099454144e-07,-0.32211596063661424,0.09624992711209723,0.09946881158886048,9.799997859105906
1727704934.9746313,-2.6306287503843023e-07,5.275710263443917e-07,0.8936216262420804,-0.4488211103681642,1.1916826256647374e-08,-3.824687821417107e-07,-0.3242071405491801,0.021200454972862506,-0.014113372129637626,9.79999999773218
1727704935.0162258,-2.597109569514795e-07,5.294774325034587e-07,0.8965352630443266,-0.44297237173179566,1.1400512071684829e-08,-3.859280261701383e-07,-0.32696368762139527,0.020267275546224584,-0.014842284719300977,9.80000001349938
1727704935.0494637,-2.572476605922966e-07,5.312449983416616e-07,0.8988154336342016,-0.4383272935383031,1.3883437919473696e-08,-4.1016091697476573e-07,-0.3481685899905985,0.05107198920933141,-0.004363301015541338,9.799999811452077
1727704935.238689,-2.5361215659231907e-07,5.308333524416321e-07,0.9011044727189741,-0.43360204017683485,-4.150893162399517e-07,-4.1391041154952294e-07,-0.3517865741419515,0.059603112347855605,-1.1922645993038399,9.799992998278192
1727704935.2568774,-2.483381241051397e-07,5.298465851277577e-07,0.9044071133756832,-0.4266705676222834,-1.314522899357277e-07,-4.655997155450934e-07,-0.40551087668089353,0.22096074163439344,-0.4163913088984644,9.800000610742712
1727704935.2853465,-2.442114127294824e-07,5.296925020031426e-07,0.9071720096841196,-0.4207599610767822,-1.246640528110866e-07,-5.156738421821457e-07,-0.44980069686560914,0.2193909668700628,-0.41662680149084097,9.800000516535494
1727704935.5566745,-2.4007572742608905e-07,5.30382536735732e-07,0.9101889501026853,-0.41419328230988095,2.2743415767681237e-08,-5.693826074355085e-07,-0.5013278439191916,0.31372682624123344,-0.015136331415530899,9.800002868907074
1727704935.5657651,-2.3594517928740032e-07,5.323016158010879e-07,0.9135276444230114,-0.40677664986403134,-3.212702621175192e-08,-6.421703152820245e-07,-0.5584163455010953,0.19587513937715909,-0.19667589034532676,9.799999209432924
1727704935.6048396,-2.3015215156969882e-07,5.354586710411835e-07,0.9180712011823942,-0.39641552638509997,3.240618713987673e-08,-6.609360744558222e-07,-0.5668331209101721,0.01076624640123075,-0.04505646247900444,9.800000058080732
1727704935.6367316,-2.2577624402461614e-07,5.378564580113078e-07,0.9214094416847237,-0.3885931558505703,3.165973963372657e-08,-6.619069641054243e-07,-0.5670238057128562,0.006616039906571274,-0.044981252255530665,9.800000043744072
1727704935.6863053,-2.213700533577885e-07,5.402055895450072e-07,0.9246812533193005,-0.3807421433982673,3.068335660328325e-08,-6.624692636138532e-07,-0.5670352717779927,0.0063668886785611944,-0.04500592291322306,9.800000043862271
1727704935.7330017,-2.1548638865214245e-07,5.431207943931825e-07,0.9287339484477344,-0.3707468853548729,1.773691924948652e-08,-6.003613497387047e-07,-0.493029839979251,-0.5133504839873427,-0.13376358492304768,9.800000153307069
1727704935.9785037,-2.1185313990109423e-07,5.448524253369737e-07,0.9311542918348134,-0.3646254033899247,1.795046238100792e-08,-5.019807860677374e-07,-0.4414639572655653,0.3176231191405804,-0.0009316512818152207,9.80000008087827
1727704935.9868777,-2.08186047672784e-07,5.465645790144908e-07,0.9337839121905931,-0.35783740069155484,1.7287852653520046e-08,-5.788362960637281e-07,-0.5072236743978908,0.3113109044185628,-0.016563934221640125,9.800000011750155
1727704936.0157986,-2.0241881834025182e-07,5.491087840816834e-07,0.9377470242171124,-0.3473190443549102,1.6503607236928116e-08,-6.823158984874074e-07,-0.5948830986737141,0.31243595796383317,-0.03923738857138536,9.800000038599938
1727704936.1131043,-1.9744105400511847e-07,5.512292857008704e-07,0.9410308244452537,-0.3383208350715979,2.3116645345330532e-08,-7.597602009168159e-07,-0.6602486793130732,0.3080427646296218,-0.03947173541248122,9.800000179719811
1727704936.1444223,-1.9224136947588108e-07,5.543005400217577e-07,0.9444437977015595,-0.3286729574861785,3.851506226157914e-08,-8.047541736042307e-07,-0.6865292515177517,0.04840663688853421,-0.03738492331377829,9.799999523001288
1727704936.1772442,-1.8667692598388813e-07,5.56512150841635e-07,0.9476064307987844,-0.3194402171118157,1.2217333881692476e-08,-7.453277459997309e-07,-0.6136234962852222,-0.5108130318379317,-0.16646808589178133,9.800000193891861
1727704936.3856785,-1.8057923544199344e-07,5.59105915017403e-07,0.9509233456956256,-0.3094265512374338,7.070249683470738e-08,-5.850379088941687e-07,-0.4909042007938493,-0.16070274172882895,0.08110898357324163,9.80000109552932
1727704936.3898075,-1.765849239494289e-07,5.606946030889237e-07,0.9531332820065352,-0.3025507341440521,1.0844047550041715e-08,-5.640440349563705e-07,-0.4778521989406845,-0.04598469387194692,-0.06211346974303336,9.800000026431622
1727704936.4131439,-1.7264326797074635e-07,5.621073182772925e-07,0.9552454287468315,-0.2958144196247642,1.0500779219738573e-08,-5.514163291531859e-07,-0.4670428319183004,-0.046537823015824466,-0.059676375660147385,9.800000066433698
1727704936.733981,-1.675736847123813e-07,5.642027399994166e-07,0.9578825570397564,-0.28716024606242274,9.209225579777848e-09,-5.218668857687285e-07,-0.4231502430109954,-0.5145474739293429,-0.1178878098529953,9.79999964269291
1727704936.7364964,-1.6435358110398076e-07,5.654163666034181e-07,0.9593791026935805,-0.2821200760571876,2.9296561820640337e-08,-3.929314567791263e-07,-0.31623286795511335,-0.4592452899773848,-0.03435643716093837,9.800000442454948
1727704936.7673802,-1.618406504211133e-07,5.663860033659006e-07,0.9606284625637775,-0.27783620518572744,1.2231452350588072e-08,-3.4738642157934124e-07,-0.29521945612060707,-0.01562679923901979,-0.014305594710195522,9.800000002539877
1727704936.8113027,-1.5859011590683817e-07,5.675725829852481e-07,0.9622498171961429,-0.27216775948969846,1.1596344639904894e-08,-3.46211431093224e-07,-0.29474614050505193,0.0016207512219235372,-0.012166684447152212,9.800000010321577
1727704936.8869107,-1.56145812977566e-07,5.684435075089002e-07,0.9634437047914826,-0.26791085774435314,1.1229890552449235e-08,-3.4634940013517494e-07,-0.29474337578272103,0.00172148616009495,-0.012152452294648482,9.800000010408379
1727704936.9186444,-1.5377602137585637e-07,5.6926726486647e-07,0.9645128740483271,-0.26403582293826755,1.1026947438236937e-08,-2.9988520596771083e-07,-0.2486166652245264,-0.16665733166624536,-0.029691086014201337,9.800000099731843
1727704937.1738575,-1.5173491612944555e-07,5.699835822981012e-07,0.9654749828421224,-0.2604957917235039,9.75381900473923e-09,-2.8670477430062343e-07,-0.24408131833105529,-0.0024285422555405584,-0.008831481396338313,9.80000000747533
1727704937.18417,-1.496036668064153e-07,5.707133253949658e-07,0.9662740748226981,-0.2575158486873969,7.425854247967495e-09,-1.4075829078127396e-07,-0.10211774314547581,-0.4785239509050157,-0.06978457027991923,9.800000083741839
1727704937.22157,-1.490512545667918e-07,5.709915051310446e-07,0.9664220452537042,-0.256959978298759,9.937834213715978e-09,-2.6645665210342747e-08,-0.010074599904884733,-0.3659583880047045,-0.044830316927388696,9.800000105028905
1727704937.2418096,-1.4907499243451467e-07,5.711087691296025e-07,0.9664271037898718,-0.2569409524773582,7.857934755236771e-09,2.076238034137714e-09,-0.00022387484606842874,-0.008160286324993563,-0.0011471722852933225,9.80000000091722
1727704937.3574858,-1.4916492170690083e-07,5.712437785949645e-07,0.9664272136133558,-0.25694053940002604,7.565927196873649e-09,2.616972523390124e-09,-1.3279724846919407e-06,-4.8354593486428125e-05,4.5863623008130515e-06,9.799999997299405
1727704937.387146,-1.5082103122448065e-07,5.773478152175903e-07,0.9664270228749224,-0.25694125682100444,6.255611624905343e-07,1.980803908328033e-09,9.894967522510191e-05,0.0006924190545002231,1.7309446773374375,9.79999780853022
1727704937.6414378,-1.532121665653899e-07,5.862280013393363e-07,0.9664262779262438,-0.25694405876233173,6.069257438832535e-07,2.0996852494314245e-09,0.0002393537099673097,0.0007291420572896459,1.7307932259223036,9.799997780173928
1727704937.6443841,-1.557563112003033e-07,5.956461569847026e-07,0.9664511292429722,-0.2568505689785494,2.1555070301273755e-07,-9.472619462125336e-09,-0.01814377942441115,0.22931881939548523,0.7422435012133705,9.79999270788906
1727704937.675433,-1.5599414677814777e-07,5.977388246633706e-07,0.9666654367577772,-0.2560428350442844,1.2937292321670625e-07,-7.846062710353199e-08,-0.07448616822975916,0.2706284049902328,0.5215448091613968,9.799999228966112
1727704937.9639184,-1.5564260785536978e-07,5.997097303508342e-07,0.9670901303217684,-0.25443403827680167,1.168479400036117e-07,-1.4771386755704935e-07,-0.1288535024333197,0.2684798518405553,0.49374766150312577,9.799999308949218
1727704937.966136,-1.565205797741956e-07,6.077342048110713e-07,0.9675638152049936,-0.2526267276151975,4.5629632051386066e-07,-1.5569789199725363e-07,-0.12483486257635085,0.051401865938808286,1.4389452416040724,9.799996013554201
1727704937.997744,-1.553996630409656e-07,6.108208939306304e-07,0.9683779054859776,-0.24948793992133872,9.000633722757041e-08,-2.2550948063309067e-07,-0.1863523213059983,0.2760383993039862,0.4738885919068583,9.799999077950872
1727704938.0243516,-1.5352412459681612e-07,6.112373066682156e-07,0.9691507804425343,-0.24646858779006386,-6.630851768097736e-08,-2.676478564864373e-07,-0.21106018322346917,0.07791277828748758,0.013336018085593182,9.799999289361816
1727704938.054864,-1.5141620629344256e-07,6.112279173530288e-07,0.9699309465851834,-0.24338027622626718,-5.785513293684589e-08,-2.7074415385082975e-07,-0.21290729681839923,0.05885724518055735,0.030679829436758992,9.799998380193436
1727704938.1149428,-1.4840119989828915e-07,6.106920550925087e-07,0.9710145851783891,-0.2390202405036994,-6.52685338696677e-08,-3.000556744489517e-07,-0.23910436212075026,0.13993363633005163,0.011481193322794438,9.799999622276285
1727704938.35308,-1.4591900499938822e-07,6.102746597638847e-07,0.9718723507599121,-0.23550824577498175,-6.62476661836385e-08,-3.060025331414578e-07,-0.24124278983351738,0.06418373139555833,-0.007699942392733064,9.800000020282322
1727704938.3559227,-1.410922945934342e-07,5.998173633828319e-07,0.9726829849862614,-0.23213748236300846,-7.459470336446302e-07,-2.850904222311423e-07,-0.22609088884008066,-0.016655882920063318,-1.9440561898639586,9.800002545027848
1727704938.3849404,-1.3512813602169623e-07,5.862869162611383e-07,0.9736663530437173,-0.22797770274784518,-7.164499843767433e-07,-2.5287007762533396e-07,-0.20643708049173956,-0.034606217324297306,-1.9413632906357985,9.800002479460213
1727704938.4192657,-1.3098417288355642e-07,5.764436719781778e-07,0.9743361930381649,-0.22509771863692013,-6.950824043905746e-07,-2.3076422418816504e-07,-0.19255164724898188,-0.044763241959590236,-1.9393678241468069,9.800002431959426
1727704938.511338,-1.2851234760672167e-07,5.735667231513343e-07,0.9750579617689117,-0.22195038001929496,-1.452705413379316e-07,-2.602754969821874e-07,-0.23073316855793427,0.23343174634023098,-0.4128090470253111,9.800001169979428
1727704938.5468192,-1.2598921382293013e-07,5.721295527030322e-07,0.9759230933490659,-0.21811491436315794,-1.269668124978171e-07,-3.148576045158431e-07,-0.27763073919009107,0.22765435563133052,-0.37926894550455,9.800000511877998
1727704938.7542293,-1.2209591380112994e-07,5.707522918984816e-07,0.9772900638651053,-0.21190594864278273,-1.2469150697003505e-07,-3.876959132608238e-07,-0.3404188556855861,0.21711171861694703,-0.39495656296741516,9.800000380962532
1727704938.7572017,-1.188299321629553e-07,5.704395855404309e-07,0.9784745561745747,-0.2063674948208381,-1.1257193910292472e-07,-4.4859751997911014e-07,-0.39332098522447156,0.22299625269296028,-0.3749540433249939,9.799999932283033
1727704938.782536,-1.1516375453960871e-07,5.702146347967754e-07,0.9797474106225086,-0.20023738756324078,3.1227795530112676e-09,-4.905305342792993e-07,-0.4242225592384984,0.06721827924785957,-0.09006834018004159,9.80000171103844
1727704939.1149027,-1.1041333627218424e-07,5.717308824961946e-07,0.9814203936412986,-0.1918697760060693,2.887137082530515e-08,-4.971232556439171e-07,-0.42704890361470615,0.005097785995405036,-0.02559624398840207,9.800000029199358
1727704939.118486,-1.086905271330971e-07,5.823675911168767e-07,0.982587566217797,-0.18580009341718745,6.673316135843705e-07,-4.832020079284172e-07,-0.4046119820843019,-0.09179496926345466,1.7720517015874784,9.799997765824054
1727704939.1329844,-1.0693262840515441e-07,5.925077372159632e-07,0.9836586623558912,-0.18004342801628842,6.131547189748424e-07,-4.6674801105515953e-07,-0.38399116267066125,-0.049463289547327045,1.6838619415073963,9.799997166763562
1727704939.1742194,-1.0449480374656458e-07,6.051050258389004e-07,0.9849621651051854,-0.17277017483040324,5.888900840873126e-07,-4.489926574443787e-07,-0.36080885246207883,-0.024322763255796895,1.6881486590899073,9.79999780789271
1727704939.2041152,-1.0225311686693794e-07,6.119391646014484e-07,0.9858589226041772,-0.16757739919615028,1.9714120764174378e-07,-4.357517428302637e-07,-0.34233497926422146,-0.07394477254602994,0.6419010017804005,9.799991725639599
1727704939.3067803,-9.901756938667008e-08,6.120753498207814e-07,0.9866908435325291,-0.16260743921691284,-4.848702272537861e-08,-4.2023660717327217e-07,-0.3351808655793649,0.0692859032678261,-0.012993416196685778,9.799999885058616
1727704939.3351295,-9.643082659560842e-08,6.152703067936628e-07,0.9874388300179068,-0.15800176256130533,-1.59993225891724e-08,-3.8446946312800554e-07,-0.3027303607912206,-0.00013444133814208444,0.08651049991559791,9.79999696740733
1727704939.5904877,-9.393889549548301e-08,6.239292836472162e-07,0.9883471273135294,-0.15221680567761253,5.546847186884978e-07,-3.6557720946776067e-07,-0.28434780132916126,-0.0019515485400574196,1.6999204378713981,9.799997743022423
1727704939.6024225,-9.247548991014848e-08,6.324085137889334e-07,0.9889626066912235,-0.14816532173923885,5.381453589878265e-07,-3.494101519888375e-07,-0.26765749370249864,0.008979082564252314,1.7021647833518312,9.79999771573269
1727704939.6326058,-9.051810192249113e-08,6.367626399248339e-07,0.9895188645973567,-0.14440365856010878,-3.769943568700573e-08,-3.251407460513674e-07,-0.24742142537989184,0.044962741683370916,0.1506196174405768,9.799993007814123
1727704939.674602,-8.713820058265899e-08,6.361225155509902e-07,0.9902173446196728,-0.13953354583737826,-7.722861432215229e-08,-3.1988286536219647e-07,-0.245603031897132,0.09121027157253125,0.04288006686223524,9.799997711920824
1727704939.7055385,-8.454408469595147e-08,6.350829865847693e-07,0.9907245868575596,-0.13588521993030367,-9.312005400945786e-08,-3.1896174282820257e-07,-0.24555649900976131,0.09310208280365387,-0.008026312084317588,9.800000021520688
1727704939.7363355,-8.217914514588367e-08,6.354250647536098e-07,0.9912034025689616,-0.1323473261358234,-5.857554315555968e-08,-3.0411659056488227e-07,-0.2328583025364631,0.05213857311475537,0.08289902763567712,9.799995721739242
1727704940.0219746,-8.015338515399931e-08,6.432050339798098e-07,0.9917881025425314,-0.1278919843253103,5.198236656625016e-07,-2.881665357399648e-07,-0.2173871971567116,0.024289849183778692,1.709198744834179,9.799997679661814
1727704940.0525768,-7.887158475835076e-08,6.500673593149077e-07,0.9921810721327082,-0.12480673099300732,3.0326477519712176e-07,-2.71704544296363e-07,-0.2010941403089661,-0.002635982298422697,1.1486914620821047,9.799994423888817
1727704940.0849884,-7.672283684565687e-08,6.491354848641421e-07,0.9925493625894609,-0.12184318948069212,-1.1788902997274267e-07,-2.638525790813404e-07,-0.19885181646915476,0.09521956902589579,0.0002443433399983689,9.799999767960108
1727704940.3152745,-7.371838283155846e-08,6.407656213169263e-07,0.9929010539623182,-0.11894325134324335,-8.046113940064314e-07,-2.524698995715711e-07,-0.1906958749623786,0.036872133265084,-1.9392609172147708,9.800002662102877
1727704940.3352423,-6.950266138603818e-08,6.254727422291416e-07,0.9933249630308123,-0.11534954624722199,-7.727965001201201e-07,-2.2495725642781042e-07,-0.175194647647056,0.018795744658516064,-1.9372108955769636,9.80000259292806
1727704940.3631546,-6.660407999220391e-08,6.143781732185972e-07,0.99361219819443,-0.1128485693256705,-7.497517499095082e-07,-2.0607036933847151e-07,-0.16420424870542277,0.007010109593515508,-1.9358017024141005,9.800002542629805
1727704940.3934243,-6.391282208374066e-08,6.035968790867718e-07,0.9938755211117294,-0.11050542310004452,-7.27386490629397e-07,-1.8858235499101804e-07,-0.15374597886412855,-0.003373203652788796,-1.9344935919321828,9.800002493957594
1727704940.457899,-6.132732371736698e-08,5.962459996683613e-07,0.9941927480820216,-0.10761403096603689,6.189499707880887e-07,-1.6861679877549134e-07,-0.1405018323460777,-0.01892162932406675,1.7192789078222201,9.800024067223317
1727704940.490164,-6.107815561302087e-08,6.054317211983657e-07,0.9944073374555209,-0.10561272278589795,6.005977217339988e-07,-1.5999865791749992e-07,-0.13111285858132024,-0.010075131900734653,1.7202668299296617,9.799997785929861
1727704940.7363994,-6.079036862122494e-08,6.13820136494348e-07,0.9946064939377766,-0.10372040405061683,4.780034922042316e-07,-1.543987144471698e-07,-0.1271362566083793,0.06320748762252357,1.4396078183424224,9.799996047388253
1727704940.7494957,-5.902770356287049e-08,6.155883411065322e-07,0.9949662657609608,-0.10021042858558371,1.0807481473305281e-07,-2.3979805406180296e-07,-0.2021402552979834,0.29474074956121155,0.4575980850348083,9.799999428374722
1727704940.780221,-5.7139394080994845e-08,6.173241242151399e-07,0.9953129417207551,-0.09670650465606029,9.888072982676241e-08,-3.0283605972578376e-07,-0.25077465278455874,0.30263319357433177,0.4350794611766179,9.799999395398133
1727704940.8114252,-5.4669140431528297e-08,6.180700357398883e-07,0.9957096093515718,-0.09253309594169196,-3.535654189425132e-08,-3.588755012070749e-07,-0.28849440083956224,0.16993784273019685,0.04400826680663793,9.799998460135509
1727704940.8490548,-5.185717289390108e-08,6.175838004506588e-07,0.9961029546814184,-0.08819809337261242,-5.0403278285823454e-08,-3.6415150586293334e-07,-0.29038941967801685,0.10373479824808435,-0.011097373991200777,9.800000016808989
1727704940.8876836,-4.818385645834616e-08,6.167220336910786e-07,0.996581993078248,-0.08260950957246976,-4.843183740681084e-08,-3.4962677417403164e-07,-0.27946737049362785,0.09570177369938167,-0.011205822716641563,9.800000035042222
1727704941.1360688,-4.59886701445503e-08,6.22359278424454e-07,0.9969131463958689,-0.07851228275052913,5.600728723578008e-07,-3.416440180802366e-07,-0.26878023890662717,0.02556557818898076,1.6805201202423148,9.799997631263016
1727704941.16379,-4.345350848457379e-08,6.24493694066081e-07,0.997250031966507,-0.07411055081706774,8.574462630372947e-08,-3.8198052920909506e-07,-0.3093432517065168,0.3294887030590466,0.42488436717330136,9.799999106276095
1727704941.223928,-3.940869691905858e-08,6.259319502077385e-07,0.9977104630524161,-0.06763011101084898,-5.781565889752831e-08,-4.1392901348294533e-07,-0.32509024456601887,0.1359898308828065,0.005619114880342077,9.799999139882251
1727704941.4837196,-3.6565512208671584e-08,6.30611380811805e-07,0.9980237715804445,-0.06283749963155277,4.0087299144088966e-07,-4.0677623074027956e-07,-0.315611938878844,0.07582076179901837,1.2822731415065163,9.799995312344153
1727704941.495177,-3.3566657612190944e-08,6.318751373157733e-07,0.9983075233370003,-0.058155729282201474,-6.723986980466174e-08,-4.015824446481174e-07,-0.31214235721538464,0.13856854664118276,0.012108117186816245,9.799998868130318
1727704941.5368366,-2.9425084717661186e-08,6.306325241822465e-07,0.9986510192064826,-0.051924385768681414,-7.37811628645342e-08,-4.0010134592651333e-07,-0.3120306133615238,0.14261478848606174,-0.013066757745650906,9.800000029303536
1727704941.5630603,-2.637170148772821e-08,6.304701202782465e-07,0.9988840741870606,-0.04722929530556469,7.956310327368127e-08,-4.0188789373294824e-07,-0.3161149642696741,0.19889435527204283,0.41379045232566075,9.800002480708162
1727704941.6293387,-2.3244189197997012e-08,6.296798641957438e-07,0.9990977716097968,-0.042469315557720044,-7.089280369397309e-08,-4.0656260737447177e-07,-0.3178355752435288,0.1482229240290321,-0.012104859675426752,9.7999999723445
1727704941.6604214,-2.0182952677405468e-08,6.305681904083924e-07,0.999287059140449,-0.0377541181069696,2.9022628207467764e-07,-4.003117536364561e-07,-0.30806623011444295,0.007232947370539601,0.9651798373043771,9.800005876881775
1727704941.8806822,-1.638278939723971e-08,6.346465636371459e-07,0.9994934312836025,-0.03182578860809404,3.010501116074866e-07,-3.7378993008424306e-07,-0.2837966457809593,-0.04070594522151247,1.013391895867545,9.7999938169852
1727704941.8933911,-1.3592835144592301e-08,6.333657878310751e-07,0.9996183003431137,-0.02762704505992858,-7.959229109532765e-08,-3.5924334439878564e-07,-0.279591669674709,0.13663757604020615,-0.012657299618391191,9.800000106584394
1727704941.9228013,-1.084109671567557e-08,6.322897403128536e-07,0.9997253449035942,-0.023435758084389136,-7.672505396565544e-08,-3.581807246973828e-07,-0.2795007638466144,0.13976383520636934,-0.010471148755039097,9.800000027137798
1727704941.96436,-7.200488728797241e-09,6.31370140687297e-07,0.9998410402445336,-0.017829588955717846,2.2384879004174466e-08,-3.593851081870455e-07,-0.282976999394145,0.18803034912774658,0.26272896597991086,9.800001584276673
1727704941.992025,-4.4322140625070395e-09,6.304081439699987e-07,0.9999079531370402,-0.013567802065813372,-7.251637437704954e-08,-3.630111245852652e-07,-0.28429500600021873,0.1441571648762812,-0.00991897635045129,9.799999992278194
1727704942.0225077,-1.6698224882357504e-09,6.294006363288028e-07,0.999956655706077,-0.009310569731324603,-7.041182444371626e-08,-3.614401314353697e-07,-0.2835051285064547,0.14037363812711764,-0.01010648806742923,9.79999998204467
1727704942.267289,1.8795995504278855e-09,6.276882222180022e-07,0.9999913376935206,-0.00416227552295545,-1.0540024094628118e-07,-2.939519812238708e-07,-0.21406633804805192,-0.3605532498127921,-0.17636679506622802,9.800000248613825
1727704942.295167,3.750993799486572e-09,6.274262790169856e-07,0.9999990783354964,-0.0013576920724702735,-6.522349373357582e-08,-2.318213526545195e-07,-0.1837199657432031,0.06846355020422074,-0.0010570930769981627,9.799999713613236
1727704942.326427,5.3203666131001306e-09,6.264396699482958e-07,0.9999994889597252,0.0010109796711262886,-6.590576554181248e-08,-1.9396402877007164e-07,-0.1548334774819362,0.055597009654597615,-0.006487023555843818,9.800000026351801
1727704942.564249,6.753983402945934e-09,6.252984466482819e-07,0.9999950003262151,0.0031621704858377786,-9.980185626772752e-08,-1.721371274364864e-07,-0.12161976579054279,-0.37935879962350977,-0.16441138860085963,9.799999468039209
1727704942.5691662,8.040953610728411e-09,6.242309361092508e-07,0.9999863824525401,0.00521870760749138,-6.139952451052108e-08,-1.2294102219509023e-07,-0.10095167699344657,0.04628934254706284,-0.0017932955028185278,9.800000004880944
1727704942.5993652,8.941111995926814e-09,6.233290443805572e-07,0.9999771623740201,0.0067583082212951395,-5.967004884134586e-08,-1.2499520373626715e-07,-0.10284347309298969,0.05309215904660638,-0.0012137903661387115,9.800000011994824
1727704942.6297703,9.849302225124372e-09,6.224517362734988e-07,0.9999656223483744,0.008291810480246131,-5.795326233988394e-08,-1.238980070318667e-07,-0.10095361543666642,0.024643512726077642,-0.0051998271739301495,9.800000013935179
1727704942.6989129,1.1026488703040608e-08,6.213200617486607e-07,0.9999469809690495,0.010297341914159153,-5.565776824368061e-08,-1.215085016070558e-07,-0.1002140526598091,0.05015023342658818,-0.0013817548821156564,9.80000001204234
1727704942.7272558,1.1835536680684873e-08,6.204978874714491e-07,0.9999324166757582,0.011625922784561538,-5.401020050684182e-08,-1.0523499306671585e-07,-0.08718954037649913,0.03369304418120932,-0.0025178809754133795,9.800000016723784
1727704942.9490254,1.2586325841746342e-08,6.195237494911546e-07,0.9999184081694835,0.01277407544294884,-8.764405535391772e-08,-8.600089368358719e-08,-0.05574085152546153,-0.3931209913185419,-0.15839538334179362,9.799999469883986
1727704942.9562314,1.2911639749703347e-08,6.186770321797485e-07,0.9999111377542699,0.013331038765920622,-4.9960297537110035e-08,-2.5536472189167616e-08,-0.02507453656556599,0.006055743682299634,-0.000818453624986748,9.800000003099283
1727704942.9811904,1.3042884151490356e-08,6.176251018390965e-07,0.9999060863441568,0.0137046886695672,-1.118067751064449e-07,-2.504574947214015e-08,-0.02489285139451405,0.012221265905806309,-0.17547542134639432,9.799998978539714
1727704943.0149095,1.3179411833540398e-08,6.168697228283406e-07,0.99990090052661,0.01407796596435501,-4.6558457243643173e-08,-2.52088947755132e-08,-0.024886825751661658,0.012399375020782689,-0.0005715885857493462,9.80000003113982
1727704943.0487475,1.3318921840715107e-08,6.161872765150619e-07,0.9998955755488411,0.014451228234033275,-4.5005551690812304e-08,-2.533802226289754e-08,-0.024886666021762212,0.01240480084939968,-8.128498336646783e-05,9.800000008784059
1727704943.0872107,1.3507260773054234e-08,6.154621586709958e-07,0.9998884566850973,0.014935668298258875,-3.967695645905316e-08,-2.385024959181885e-08,-0.023401025516395592,0.00732460840105476,0.009894199719399562,9.799999532278466
1727704943.3352017,1.3640759434241772e-08,6.150044206998408e-07,0.999883644618609,0.01525441653516657,-6.245999975541511e-09,-2.0117621684784815e-08,-0.017159619894348763,-0.07409681442611864,0.0879392015810879,9.800000600257713
1727704943.3642092,1.3699627196351019e-08,6.14407389990142e-07,0.9998801651845055,0.015480803281108235,-4.1250198420803783e-08,-1.3102839761301986e-08,-0.01484796011997283,0.005644807712803594,-9.122768379770938e-06,9.799999996407708
1727704943.447953,1.3758204014325956e-08,6.1360066611946e-07,0.9998760467142639,0.01574456117769013,-3.97217023868322e-08,-9.08456701586444e-09,-0.011178495140045956,-0.005059531142871105,-0.0015958299640797587,9.800000013868509
1727704943.6939487,1.376719734698037e-08,6.129689273674459e-07,0.9998712171892155,0.0160483343740207,-4.834091480891502e-08,-2.4299292914198622e-08,-0.03890576366612249,0.39762571699987037,0.026601790642457733,9.799999818324034
1727704943.696515,1.4116949846955517e-08,6.124503949638984e-07,0.999859255669842,0.01677703343783532,-3.739865386238698e-08,-5.722571490444432e-08,-0.04974114169239341,0.03328382524119409,0.00140065354606206,9.799999980541045
1727704943.7340891,1.4651070452425767e-08,6.117115545008583e-07,0.9998419939054761,0.017776029442692354,-3.612700513217963e-08,-5.8012730972002075e-08,-0.04997873897879623,0.025089359889821267,-0.0003312374648887947,9.800000007179447
1727704943.7647758,1.5053543281463655e-08,6.111757646136227e-07,0.9998283862377642,0.018525605869027684,-3.506097289395054e-08,-5.8057591897509144e-08,-0.0499801442778582,0.02504089008810671,-0.00033879088432600576,9.800000007008059
1727704943.8457925,1.5419684433071197e-08,6.106551805814676e-07,0.999816039559396,0.0191803816278599,-3.400919539998495e-08,-4.94404187071596e-08,-0.042905649497740374,0.01602908019692221,-0.0010603164170839775,9.800000009791669
1727704943.8769586,1.5777774652635787e-08,6.101517847346341e-07,0.9998017248072486,0.019912585770769542,-3.296735780240547e-08,-6.034572820763298e-08,-0.052943130438914784,0.05637232964877724,0.004034479395428339,9.799999990769377
1727704944.1189356,1.635780353124651e-08,6.092111237079591e-07,0.9997797937828634,0.020984850324061832,-8.937322198420735e-08,-6.272529698122208e-08,-0.05343165319583287,0.022059641374506066,-0.1608153381111688,9.799999064811372
1727704944.1271942,1.6795872591235296e-08,6.087000322156246e-07,0.9997626925355083,0.021784366269851307,-3.030874761443449e-08,-6.236922324738491e-08,-0.05329903889541136,0.026503909399608935,-0.0008482226379763248,9.800000026328437
1727704944.1551132,1.7230860687809493e-08,6.084477830550434e-07,0.9997454715418066,0.022560853957255378,-2.8957334222732174e-08,-6.034391178088183e-08,-0.05159764087419061,0.024503464475869926,0.0013587949709645071,9.799999920361417
1727704944.1998281,1.7795340710920468e-08,6.07860250575656e-07,0.9997216734365204,0.023591855817488627,-2.8494279138552637e-08,-6.027040512945289e-08,-0.051560463743201626,0.02578730558490884,-0.0003613238244911554,9.800000005724234
1727704944.2307732,1.8231752454122184e-08,6.075289605021657e-07,0.9997025078525972,0.024390485703619125,-2.7513908854376284e-08,-6.262381905050618e-08,-0.0534598864685456,0.028243772466377038,0.0007514797807977813,9.79999996329317
1727704944.2678628,1.868112807630689e-08,6.07145810153166e-07,0.9996821287586282,0.025211930514115632,-2.6229050185785085e-08,-6.51654299428855e-08,-0.05566112548475703,0.03427613308679065,0.0029050191148593087,9.799999894800777
1727704944.503225,1.93025407466971e-08,6.066054815203201e-07,0.999652980358066,0.026342339699952644,-2.5995172725280684e-08,-6.73388740948712e-08,-0.058695021306903156,0.06796778011650782,0.005192516421194415,9.800000003385206
1727704944.5383968,1.9803714484357134e-08,6.062117544051367e-07,0.9996290070973541,0.027236889858964997,-2.529571010829282e-08,-7.065358869930155e-08,-0.05977294642383031,0.030789550710583383,-0.0003616765115673297,9.800000004806746
1727704944.5784621,2.0210423231853186e-08,6.023610821491189e-07,0.999604342972463,0.02812752229093768,-7.183237981032615e-07,-6.934636258788624e-08,-0.05860978780576652,0.012968146099899776,-1.9259529632125685,9.799988642169097
1727704944.8324156,2.038703348234701e-08,5.917940783903305e-07,0.9995802335575921,0.028971653052568713,-6.969365994702188e-07,-6.364979320677356e-08,-0.05516012802230855,0.008633528080120132,-1.9255888504889616,9.800002419750287
1727704944.8352563,2.1343196865187144e-08,6.036619625808974e-07,0.9995488117739824,0.030036192848881094,5.134022982860414e-07,-6.226983359652022e-08,-0.0547251183299199,0.06883881098171402,1.4700572108084933,9.799996223131371
1727704944.8631015,2.1835605546915603e-08,6.038731951050036e-07,0.9995224688742173,0.03090039182962029,-1.8860921985400994e-08,-6.828392895100211e-08,-0.05798870816195227,0.031156752676675278,0.004948629097521702,9.799999776089306
1727704944.8926046,2.2327205444363478e-08,6.035574383281562e-07,0.9994951825248859,0.03177074297494631,-2.009106112241278e-08,-6.85145514641807e-08,-0.058059457411626006,0.028719152704757243,-0.00043580058746110924,9.800000003566455
1727704944.9576864,2.295612698329346e-08,6.02945583781389e-07,0.9994593962530918,0.03287727545039737,-1.9617355104124093e-08,-6.363252522211927e-08,-0.05402333462850771,0.023484879987975917,-0.0028133822220983294,9.80000009375499
1727704944.986837,2.3376117596523097e-08,6.015828897557466e-07,0.9994346240811147,0.033621900414433914,-2.3270444560068727e-07,-5.609924141585094e-08,-0.04110730485875372,-0.15338156179226348,-0.6191628465679542,9.799996504872865
1727704945.19365,2.3675370299443614e-08,6.011643889310155e-07,0.9994159264765741,0.03417317521988594,-1.591818221435251e-08,-4.145811289632152e-08,-0.03625555330225065,0.013840525659190455,-0.002396084511250907,9.800000080089756
1727704945.2118723,2.3709700268407445e-08,5.979183110697544e-07,0.9994105347162963,0.03433049806992311,-1.2321341992986397e-08,1.773194490762388e-09,-0.0009002696826322864,-0.01594268822680704,-0.012563371479435214,9.800000468208625
1727704945.2347524,2.3649573904809663e-08,5.976071768701226e-07,0.9994098243489473,0.034351171660494284,-4.512077494456741e-08,1.647071624141221e-09,-0.0031032577085378914,0.03701023745989384,-0.09695235284218574,9.799999396867625
1727704945.5664408,2.3626081826870683e-08,5.97461558355344e-07,0.9994077665433938,0.0344109891224863,-7.771610460465166e-09,-1.5115908154708516e-09,-0.0040958894679851265,0.002678448636531658,-0.00016365876531428684,9.800000013824782
1727704945.5689385,2.342688713057847e-08,5.955191231728304e-07,0.9994164868007214,0.0341567842536164,-1.1016744130599606e-08,2.668319236851817e-08,0.019762169991156566,-0.02942237479569724,-0.023328002312289483,9.800000925789021
1727704945.5919507,2.3091529179363374e-08,5.951991565546291e-07,0.9994306292068669,0.03374044165110118,-9.305852039911613e-09,2.956293218719746e-08,0.021555889200451976,-0.013533891622060729,-0.018169859927733543,9.800000794630234
1727704945.624925,2.283715497421813e-08,5.951591382791605e-07,0.9994415330203221,0.033415895523440986,-2.8099245356357993e-09,2.97458000113262e-08,0.02165968020740109,-0.009920121310668849,-0.00010419266021681374,9.800000002846273
1727704945.653758,2.257969042436591e-08,5.946603015641605e-07,0.9994513433210112,0.03312117651098234,-3.4180415423940557e-09,2.694587384146599e-08,0.019421060212313882,-0.0070517209227139895,-0.00427171725231245,9.800000202023254
1727704945.7004495,2.2267576647994864e-08,5.94396660692896e-07,0.9994644678512784,0.03272273678051929,-4.9023507379923964e-08,2.788531339759336e-08,0.021596722025619453,-0.04001673002470043,-0.13547531063403884,9.799999225687076
1727704945.9758532,2.2014888874172538e-08,5.943480147275594e-07,0.9994753808376362,0.0323876998119334,-1.2321794732185288e-09,3.025403896995563e-08,0.022437233491986803,-0.010751000080371897,-0.000511344281189306,9.800000017186223
1727704945.9775848,2.1424180020921196e-08,5.84044545187785e-07,0.9994857214506372,0.03206700197956586,-6.808421670629335e-07,2.8984076696791273e-08,0.020876352987784466,-0.00357203884298429,-1.921656132056714,9.80000238200639
1727704945.9913259,2.0688601608488368e-08,5.707813346610166e-07,0.9994982395208709,0.03167442492537864,-6.539401631031649e-07,2.5808642902662195e-08,0.018912934308108878,-0.001688611107030539,-1.9214705251284523,9.800002325421003
1727704946.0250602,2.0173089999048822e-08,5.611784619587161e-07,0.9995067472931423,0.03140481038260112,-6.344613818962456e-07,2.363146315636029e-08,0.017526487199223492,-0.0004937718915598069,-1.921331679416662,9.800002284431903
1727704946.0910292,1.9899038261517893e-08,5.584454983244293e-07,0.9995145736732646,0.03115472699993127,7.019814086981031e-07,2.0284266409492768e-08,0.016318594243891937,0.002537354000220726,1.730972583951782,9.800024168463455
1727704946.1257172,2.0055361889613812e-08,5.687657022443871e-07,0.9995218833611745,0.03091932537761044,6.811206792786883e-07,1.9548791842938544e-08,0.015400823152165729,0.0015461070832363541,1.730788356166849,9.799997893864315
1727704946.3994977,2.02541435462186e-08,5.820494111488352e-07,0.9995309290226425,0.03062551104542338,6.542029522978883e-07,1.862322459475783e-08,0.014291292312273173,0.0003878995202696969,1.7305253505834597,9.799997853568152
1727704946.4019656,1.9873896804557504e-08,5.778184603903287e-07,0.9995441924184745,0.03018952470916042,-3.8648224753579665e-08,3.67677719834649e-08,0.029280476365129596,-0.011543935963889222,-0.19541038738093708,9.800008778006106
1727704946.4108696,1.9589768847058343e-08,5.782468048521465e-07,0.9995573733397951,0.029749914314410597,3.1410646087058307e-08,3.6736071171623134e-08,0.029325395293481993,-0.009760974433678002,-0.0006483803490650844,9.800000018431579
1727704946.7009025,1.926900715295587e-08,5.777077238578378e-07,0.9995671211911993,0.02942057499784606,2.8538385943895298e-08,1.4610417990941817e-08,0.01015104221262041,0.011631743511383933,-0.009058079063101103,9.800000492146985
1727704946.7043128,1.928686283640518e-08,5.815091770788035e-07,0.9995695555904344,0.029337749341130592,3.880558692753492e-08,7.3235311703024155e-09,0.004277934446095165,0.00770278322760074,0.039461577951462073,9.799998273531722
1727704946.7239432,1.9233852895358762e-08,5.818878013673911e-07,0.9995713369248673,0.029276994345291518,2.416889865575165e-08,6.533701167521954e-09,0.004025147572330595,-0.001188651851885519,0.00014620385501630745,9.799999990212674
1727704946.767782,1.916821152582646e-08,5.824565716586386e-07,0.9995736638266098,0.029197441393181756,2.303314182240072e-08,6.396712939105978e-09,0.003974647839231957,-0.0013593504941772938,0.00014395991645591578,9.799999989425485
1727704946.7985435,1.9136511175202407e-08,5.832173762336626e-07,0.9995748831855228,0.029155666761501997,2.2932657420922694e-08,4.808607143776998e-09,0.002643826770873183,0.00012915311618848262,0.00423934542473728,9.799999811557942
1727704946.8277678,1.9092576205153095e-08,5.833206532843024e-07,0.9995763876275414,0.029104042625284154,-2.2070939993581294e-08,5.987466490120831e-09,0.005090069228790629,-0.03564137218244988,-0.12359773639753842,9.79999929075515
1727704946.8585565,1.902662002862082e-08,5.836004216527157e-07,0.9995789700770282,0.029015212896111198,2.056990236600802e-08,8.673894415782335e-09,0.00602394859155073,-0.002812043282158658,-0.0004317611035767222,9.800000011223565
1727704947.1107113,1.8948405455025443e-08,5.833643760096779e-07,0.9995798433167615,0.02898511401560755,1.8898498927481395e-08,8.234480449384503e-10,-0.0007243906402045291,0.005505275906157601,-0.005419855325796386,9.800000272389228
1727704947.118067,1.8934741425166723e-08,5.833690251321082e-07,0.9995795135736234,0.028996483296732545,-4.046018558513103e-08,5.575817392947731e-10,-0.0005820310238669945,-0.0037487058693614662,-0.16956712083932074,9.799998991778024
1727704947.1493654,1.892681200048715e-08,5.836311512970852e-07,0.9995793020087669,0.029003775535693554,2.0436228773666757e-08,7.682891089327054e-10,-0.00047486827821067627,7.696284730016315e-05,-0.00047428174477379825,9.800000017226544
1727704947.228458,1.8608927122708927e-08,5.737399637707236e-07,0.9995789881556751,0.029014590077190205,-6.598436069262331e-07,1.3135041773362556e-09,-0.000607707801306774,-0.0007354559383274108,-1.9221330437458666,9.800002338573465
1727704947.2658901,1.83037690639465e-08,5.640443512526759e-07,0.9995786869845964,0.0290249638386057,-6.401842517146412e-07,1.1215454785667254e-09,-0.0007329420721141199,-0.0007770933291372108,-1.9219636253002104,9.800002297179272
1727704947.2879558,1.800869151337529e-08,5.546376203416455e-07,0.9995783337801465,0.029037125150361387,-6.211077184845794e-07,9.470721424675916e-10,-0.0008491942592400291,-0.0008337682651993151,-1.9217939840741263,9.800002257012776
1727704947.4876246,1.8218439675050758e-08,5.620871035930213e-07,0.9995778798934334,0.029052745609195352,6.947420448920397e-07,-3.5915676352983886e-10,-0.0006783825664486787,0.0005571577106463881,1.7304040709198802,9.799997914931003
1727704947.5085022,1.8513947876286232e-08,5.72296378732135e-07,0.9995776407867154,0.02906097105976091,6.740523640284875e-07,-1.612772566989425e-10,-0.0004852337802226781,0.0006180932942812575,1.7302553062976023,9.799997883879152
1727704947.54208,1.8799300527467677e-08,5.82201631183857e-07,0.9995774819636885,0.029066433403372394,6.539759922099303e-07,2.9885641140348094e-11,-0.00030524114756696043,0.0006561858805888081,1.730105715718181,9.799997853742783
1727704947.8290064,1.87227441914061e-08,5.801137955995288e-07,0.9995774340659029,0.029068080533268592,-3.886377945878638e-07,1.3984947980568296e-09,0.0002171237963375266,-0.00804491202082615,-1.1435730928901082,9.800007005512823
1727704947.8429856,1.8657872790403388e-08,5.794778419573938e-07,0.9995793465196932,0.029002241481077995,2.5866764370142873e-08,6.4572667548547555e-09,0.004734155166446267,-0.00478108842658943,-0.009151989234872052,9.800000386065532
1727704947.8757966,1.861185665852496e-08,5.799035188462456e-07,0.9995814400898891,0.028929995290124078,2.816571802029759e-08,6.702835066706516e-09,0.004828474659400291,-0.0014439847255056574,-2.5818706396640315e-05,9.799999995495323
1727704947.908124,1.8545948906540383e-08,5.798852180750509e-07,0.9995843872024788,0.028827987455044335,1.7278155571179844e-08,1.0133670389987831e-08,0.008151990391080305,-0.01225300623496968,-0.031421718101545294,9.80000134931881
1727704947.959147,1.8455387571689816e-08,5.808833131312712e-07,0.9995890888643282,0.028664497606690764,1.178136000541891e-07,1.0352029160187455e-08,0.0075234274465461205,0.010474257957763859,0.2531022273254713,9.800001490286611
1727704947.9939637,1.838848060260797e-08,5.81343514282805e-07,0.9995921862851201,0.02855627982416331,2.5547181912586176e-08,9.4215686433115e-09,0.007180913312366876,-0.001770762653861469,0.0007490930729776219,9.799999963105352
1727704948.2390354,1.8284623066109985e-08,5.804401078460283e-07,0.9995950779327021,0.028454879588174498,-5.054720525565012e-09,8.665300241818245e-09,0.006482796798655665,0.00014301335664659612,-0.0879854789876913,9.800003969102818
1727704948.244187,1.8197488636140786e-08,5.808716393966022e-07,0.9995991188736271,0.028312568705972763,2.5978864418494237e-08,9.605969577460344e-09,0.007451171257806276,-0.0028513783055002717,-0.0008636908775658733,9.800000029113821
1727704948.275124,1.812885428050289e-08,5.812593377310259e-07,0.9996022852670294,0.028200554756846796,2.5476538685528085e-08,9.646149433066825e-09,0.007472890903647373,-0.002082858835466857,8.476740365968743e-07,9.799999995012081
1727704948.3505034,1.8069387531882906e-08,5.819782069433275e-07,0.9996051518661133,0.02809876086921309,9.322467416615992e-08,8.51006599614286e-09,0.005420281945077941,0.026840918865881466,0.1938447465983771,9.800001122857878
1727704948.3815453,1.8024371400682926e-08,5.823877474017038e-07,0.999607141782773,0.028027880700034036,2.3389098959857683e-08,6.271550290181315e-09,0.004644583653087923,-0.0006860264062407388,0.0006301626889645789,9.799999971085699
1727704948.4259489,1.793829008478202e-08,5.832233397910607e-07,0.999612349812061,0.027841517610735667,2.1718676557977614e-08,1.2294794358529931e-08,0.00978525665407729,-0.0038460278615586015,0.00036186892380028686,9.79999997277934
1727704948.610263,1.78476132861616e-08,5.835424446481276e-07,0.9996164367928306,0.02769439100728166,2.089234209494054e-08,1.236288825699405e-08,0.009815434663331467,-0.0027796283379981873,-1.4603178751163077e-06,9.799999995762692
1727704948.6242685,1.7756850799713587e-08,5.838519869661613e-07,0.999620503685162,0.027547206970618743,2.0271903241882702e-08,1.234400088289882e-08,0.00981608318305049,-0.002756706795065248,4.942581893378759e-07,9.799999995949875
1727704948.6667778,1.7635910433283482e-08,5.842505520898249e-07,0.999625892541899,0.02735095902286666,1.94740861805715e-08,1.2317707119288389e-08,0.009816097341659238,-0.0027562066439196257,5.721383041238151e-07,9.799999996110932
1727704948.9132063,1.741487475699281e-08,5.799270365933084e-07,0.9996296124063673,0.02721466516346327,-2.1051708805177196e-07,1.1305231184302126e-08,0.007909929607523673,0.01979388014538398,-0.6519796931117993,9.800009903736429
1727704948.9332223,1.734983018983951e-08,5.800918902738271e-07,0.9996316800141735,0.027138612928893024,2.56592553215458e-08,5.201183455359615e-09,0.003440677400427855,0.01113933366592,-0.004374791232766416,9.80000026451256
1727704948.9733114,1.731519977344299e-08,5.806347210877128e-07,0.9996333803864269,0.027075908421830552,2.676920295395131e-08,4.190802509736802e-09,0.0031061948033078725,-0.000716324435557041,1.884201985001352e-05,9.79999999471065
1727704949.0032468,1.7096770780952886e-08,5.741327949421616e-07,0.9996345897660643,0.027031221631700297,-6.604571025915431e-07,4.655394511657198e-09,0.0028564898078480595,-0.0005632279723121757,-1.9217754364277366,9.800002339111304
1727704949.0429327,1.679231415193771e-08,5.644280053272297e-07,0.9996356507897051,0.026991955652088617,-6.407787380486544e-07,4.1354911997709054e-09,0.0025021638772145427,-0.0004209816216238912,-1.921613696673618,9.8000022982013
1727704949.0801182,1.6500148560137782e-08,5.550122993389326e-07,0.9996365727008351,0.026957791426958755,-6.216852511470164e-07,3.65864135452089e-09,0.0021688830757118647,-0.00032008062567343736,-1.9214515555386569,9.800002258020484
1727704949.2904544,1.612858802193798e-08,5.428929185060857e-07,0.9996376007241066,0.026919643724552744,-5.971065477562961e-07,3.0865139020073046e-09,0.0017560035059065826,-0.00024327302544609368,-1.9212347117203967,9.800002206308783
1727704949.3075244,1.6038282137931207e-08,5.403201302074793e-07,0.9996379024555917,0.0269084368533844,9.081526636509863e-08,7.065255609971655e-10,0.00012654495220257625,0.004594271952909173,-0.04717828609036194,9.800002127694022
1727704949.3383915,1.607530485242948e-08,5.418972593747646e-07,0.9996379088440058,0.02690819952521223,1.0500765715078736e-07,3.293179950165127e-10,2.697167398098096e-06,9.829161999634442e-05,-0.00010905004075252822,9.799999985013896
1727704949.4072356,1.6124158394159698e-08,5.439457723158149e-07,0.999637908982535,0.026908194378819972,1.0091715978630362e-07,3.090785580219354e-10,1.599298405395642e-08,6.118826887901698e-07,1.072292989737939e-05,9.79999997988887
1727704949.437108,1.6159538897236774e-08,5.454290338444122e-07,0.9996379089833434,0.02690819434876618,9.791906158692665e-08,2.9999898398011125e-10,3.42171799639709e-10,4.133862564332478e-08,1.0721470802736487e-05,9.799999980467621
1727704949.4729247,1.619386733135144e-08,5.468682499437327e-07,0.9996379089833599,0.026908194348118752,9.501169118127983e-08,2.910653759943022e-10,7.650640338362807e-12,2.9057923022101366e-08,1.0747326922804616e-05,9.799999981054937
1727704949.666194,1.623805562001359e-08,5.487209348718656e-07,0.9996379089833596,0.026908194348097603,9.126842674179886e-08,2.7983640832358166e-10,3.6981785246551926e-13,2.8691529330310088e-08,1.0782652468641639e-05,9.799999981821223
1727704949.672829,1.627005660815628e-08,5.500623818710266e-07,0.9996379089833587,0.026908194348092496,8.855747343232452e-08,2.7105739119217225e-10,3.2043719869883096e-13,2.8608643235879208e-08,1.0808281557128563e-05,9.799999982341616
1727704949.7041655,1.6301103362489905e-08,5.513639892373851e-07,0.9996379089833585,0.02690819434808739,8.59267296736279e-08,2.63084474774607e-10,3.1504174612914465e-13,2.8524044735396945e-08,1.0833150124436104e-05,9.799999982858012
1727704949.9943612,1.6316908371467077e-08,5.526288590898302e-07,0.9996341570828935,0.027047217839675397,8.36427649087736e-08,-1.2237249869326466e-08,-0.027814821591124556,0.38946751611911895,0.05392146215817107,9.799999965288489
1727704950.0015302,1.7063748136982763e-08,5.542385994988058e-07,0.9995814865524566,0.02892838988387192,8.007824826430065e-08,-1.3083410094042165e-07,-0.1326000691142727,0.3539693141747894,0.04546448902642297,9.799999931393057
1727704950.027294,1.8362212609767733e-08,5.554058860048118e-07,0.999506449548242,0.03141428514480915,7.88508019481361e-08,-1.894132806146856e-07,-0.17163824963799162,0.044335516846507377,0.003406485264725826,9.799999910650097
1727704950.0615764,1.9847995282030726e-08,5.565122331901073e-07,0.999421723204424,0.03400322318235871,7.599705262626328e-08,-1.9313255881997077e-07,-0.1728130978787755,0.0015285582801551115,-0.004034029906910316,9.79999998887981
1727704950.1313474,2.184240138967964e-08,5.579271152074265e-07,0.9992982125864548,0.03745774047115785,7.298234405900542e-08,-1.936942650870284e-07,-0.17283861126782682,0.0005988641221403875,-0.004170968005257138,9.799999990064263
1727704950.1622484,2.3508183152635605e-08,5.589257948956624e-07,0.9991694790014077,0.040747419939701046,6.994935930347684e-08,-2.571460832171358e-07,-0.2422424587346203,0.31729389007303127,0.030894897351421452,9.799999949512936
1727704950.3977823,2.5745977384402392e-08,5.599063014933523e-07,0.9989878597614539,0.044980618591955734,6.772022123587351e-08,-3.260121793103797e-07,-0.3025317428144722,0.3088437570427276,0.02202977810893343,9.7999997859702
1727704950.4021935,2.9557532360254444e-08,5.611461687936004e-07,0.998648890975143,0.051965301440487,7.159301749967084e-08,-4.1006873735962805e-07,-0.3667346897325475,0.08283473457932229,-0.0014103608659522722,9.799999841747994
1727704950.4268057,3.274378688936134e-08,5.619993162680666e-07,0.9983453804318358,0.05750218578537347,6.740756439197277e-08,-4.182758550238505e-07,-0.3702030511461099,0.007543099643675738,-0.0184216576309052,9.800000004887577
1727704950.4589155,3.595429156235031e-08,5.6279984725524e-07,0.998010509679498,0.06304778004775924,6.535661558988678e-08,-4.194167597413175e-07,-0.3704116219600989,0.003013015229287361,-0.019158644498052022,9.800000008507624
1727704950.5401337,3.917294476890494e-08,5.635525090905853e-07,0.9976447912734834,0.06859205817417008,6.338709808285907e-08,-4.201137901949315e-07,-0.37042416877756446,0.002740635500731771,-0.01919881230328409,9.800000009024142
1727704950.5773382,4.3514186743019566e-08,5.644336826258949e-07,0.9970842110184621,0.07630908292837835,5.628885927254352e-08,-4.5634152322265197e-07,-0.4142755520133048,0.31038879142851794,0.003407845807294779,9.799999983783659
1727704950.7945676,4.7232404803156395e-08,5.650810967177927e-07,0.996552667700499,0.08296252466443388,5.438779685413492e-08,-5.115091227998205e-07,-0.46201554567464664,0.3112775510018546,-0.00636287169309408,9.799999844731794
1727704950.801613,5.141038416963219e-08,5.65521005036268e-07,0.9958944723463741,0.0905218202955212,5.2809905975944063e-08,-5.872632498015221e-07,-0.5277825349366012,0.3122281660367347,-0.02160777463949872,9.800000012973834
1727704950.8425162,5.768474245498186e-08,5.663118484410787e-07,0.9948519641897491,0.10133888368969707,6.076348095999151e-08,-6.233547080235666e-07,-0.5458340293944357,0.015349499326124606,-0.039392749040177914,9.800000010009324
1727704951.0901453,6.280825083617602e-08,5.699210076261749e-07,0.9939924870191182,0.10944832456104175,7.066838412903922e-07,-6.221688309966125e-07,-0.5386743612741957,-0.10792817753797374,1.7415389454124972,9.800010775309236
1727704951.0938563,6.861529531698442e-08,5.797153594769527e-07,0.9931018490466572,0.11725492492756712,6.855889536681301e-07,-6.093403331445061e-07,-0.5164474943174324,-0.07726141556529537,1.74749917295742,9.799997822037085
1727704951.1272671,7.545000059116134e-08,5.86389041901532e-07,0.991913056864065,0.12691921691468394,8.317348693014226e-08,-5.657052666004376e-07,-0.4703621553855991,-0.03498367752172903,0.14874727900450946,9.799996066134476
1727704951.1569102,7.948399987695594e-08,5.8472688696559e-07,0.9909987973460653,0.13387077223316546,-2.5022453683561083e-07,-5.578337039592888e-07,-0.4726753176806614,0.19178779748218208,-0.740684642735595,9.799995860447241
1727704951.1887484,8.352887715435684e-08,5.821969793540499e-07,0.9899763102915287,0.1412335125288084,-2.913596297357284e-08,-5.942850838916547e-07,-0.5041785977977883,0.1349515999878145,-0.159000181316204,9.800002675290104
1727704951.228991,8.794994580712637e-08,5.816986119148301e-07,0.9889565397314412,0.14820581136402283,1.0224019350996096e-08,-5.376763994674529e-07,-0.4330231711383423,-0.4681119116592857,-0.11959251159965222,9.800000141318588
1727704951.523777,9.215918207411427e-08,5.788937168866699e-07,0.9878959597871011,0.15511793138118696,-1.9741521211003352e-07,-3.7954511401836626e-07,-0.3056871645510297,-0.36113384747253885,-0.6607948040634418,9.800000189886468
1727704951.5253918,9.411329141472884e-08,5.752786450917069e-07,0.9873014152170703,0.1588581616097529,-2.1939070992979218e-07,-2.823676422443848e-07,-0.2264247993620547,-0.3451597264016802,-0.7249999151681419,9.800000880535176
1727704951.5336218,9.537415066008476e-08,5.718979260767339e-07,0.9868788532262351,0.1614624694922469,-2.0363081481993233e-07,-1.9147724791127607e-07,-0.15106043300492453,-0.3370340327242298,-0.6900153859173979,9.800000913888983
1727704951.5753555,9.608586611470628e-08,5.679312990418146e-07,0.9865825968102362,0.16326291578566987,-1.8180405591526086e-07,-7.85407754186624e-08,-0.05614625285794879,-0.322346714698628,-0.6439540313123485,9.800000850985517
1727704951.6474552,9.607583654272125e-08,5.661235883471187e-07,0.9865437619419879,0.1634974182457346,-9.718097559751373e-09,-7.0267169793662805e-09,-0.003070253824835113,-0.11193177218923414,-0.15228525069339077,9.800003374272672
1727704951.681218,9.621403328927838e-08,5.666680145333259e-07,0.9864739588619305,0.16391805418238586,3.921202564722292e-08,-4.4785985620842215e-08,-0.05577871276009866,0.37995265904277986,0.05214599658958881,9.799999929192433
1727704951.9169655,9.73547823323241e-08,5.67251740571834e-07,0.9860762773588108,0.16629364157976195,3.727814021213734e-08,-1.648641265051397e-07,-0.1579915695588385,0.3454352157361849,0.04257352500120268,9.799999940795578
1727704951.920095,9.897120794328599e-08,5.675673676340552e-07,0.9855706394445408,0.16926462910054962,4.233849522658154e-08,-2.412327564261356e-07,-0.21518561192608326,0.13626006507234573,0.026179255072609924,9.800000069295054
1727704951.9497952,1.0091203054095712e-07,5.677969652281088e-07,0.9850107502301917,0.1724929619741689,3.623761913096682e-08,-2.519770879895179e-07,-0.2188211606744092,0.0038452549328443415,-0.006245715150406742,9.799999997417942
1727704952.233282,1.0286742606783818e-07,5.679967276011724e-07,0.9844390854215233,0.17572617077174735,3.5128894892721755e-08,-2.524477027620256e-07,-0.21889888711801886,0.001013210664185218,-0.006688921186690321,9.80000000055269
1727704952.240509,1.0581950539222433e-07,5.68133476081053e-07,0.983459571927245,0.18112777364155436,3.214668797760966e-08,-3.4107853151995276e-07,-0.3074084880614159,0.30884921927337067,0.021307769841392973,9.799999967346182
1727704952.2685096,1.0871676909575047e-07,5.681711202732698e-07,0.9824993304895984,0.186266114973057,4.9529823013423e-08,-4.137158884679086e-07,-0.36486521012559764,0.19284315756298032,0.046994248952815086,9.800000291571727
1727704952.2995262,1.1197496660906307e-07,5.681044448609962e-07,0.9814450747034217,0.19174348839024413,3.4708288704195275e-08,-4.322143731137278e-07,-0.3731028618850316,0.014216236812822698,-0.017315982855054143,9.799999999262544
1727704952.3416727,1.1636562798103236e-07,5.679234055144535e-07,0.9799851940374507,0.19907038822246792,3.312537497257921e-08,-4.3383342817417174e-07,-0.3736175587088675,0.0030403928752987864,-0.019494229994922032,9.800000015819695
1727704952.3933337,1.1969585237558252e-07,5.67691246447285e-07,0.9787868155514023,0.20488135518491718,2.7414100824458806e-08,-4.7081864367528286e-07,-0.41747571095199915,0.31044085283545525,0.0027535183200803398,9.799999989758781
1727704952.6206963,1.235448659301825e-07,5.67420546733379e-07,0.9773564111682738,0.21159972955543943,5.2391738270616676e-08,-5.427962460602798e-07,-0.4730718997449245,0.16842756130110956,0.04248153541053805,9.80000044167378
1727704952.63243,1.294347777653723e-07,5.668215706115541e-07,0.9750779095333455,0.2218627285952795,6.000554931695038e-08,-6.345973851678565e-07,-0.5518349627072302,0.18718875179302039,0.05072189967286294,9.80000061057414
1727704952.6602523,1.34310643598345e-07,5.662729327648409e-07,0.973184993003827,0.23002384526783914,3.501526694184787e-08,-6.526248640769377e-07,-0.5597059419905527,0.017128343495356985,-0.04135865620033059,9.80000001866624
1727704952.6911724,1.3921057574169731e-07,5.656217752180497e-07,0.9712180956657415,0.23819196176838325,3.36290811032338e-08,-6.542015434588254e-07,-0.5601794029979938,0.006859262556374864,-0.04382298238515842,9.800000043957477
1727704952.7757444,1.437833565111554e-07,5.648193593065079e-07,0.9694552437898659,0.2452682822706425,2.123500788431668e-08,-5.487463379077233e-07,-0.44917286044960997,-0.5142769302320518,-0.12348156155276768,9.800000142103732
1727704952.8139107,1.483938316545822e-07,5.640720021426006e-07,0.9676809488365354,0.25217767795441765,2.050763174068792e-08,-3.7557818749248425e-07,-0.30118713798494323,-0.5165790506279059,-0.09599439806437533,9.800000110412554
1727704953.0278752,1.5074115012601402e-07,5.63775314633198e-07,0.9668151217795065,0.25547704456200676,2.0135260552259696e-08,-2.4594437434170953e-07,-0.19081475680071622,-0.5091542758800054,-0.08100847074470885,9.800000093997783
1727704953.0311017,1.5488139412627577e-07,5.729380506357997e-07,0.9661212089796454,0.2580887629466961,6.313086713715577e-07,-2.108864490966018e-07,-0.17558809749736157,-0.05230496240872336,1.7156508647988544,9.799997156373403
1727704953.0654526,1.5876334770527173e-07,5.791818692902275e-07,0.9651550150561519,0.26167880485740314,1.528209688013774e-07,-2.376057286013641e-07,-0.2061989677054616,0.24129890746427907,0.4781358177472686,9.799998514791984
1727704953.3618815,1.6124186859215886e-07,5.806305667742291e-07,0.9642141125626871,0.265124772766685,1.3197474907663634e-07,-2.9693037307188613e-07,-0.2538844195292367,0.24368492965653232,0.4269053438536108,9.799999407447562
