timestamp,orientation_x,orientation_y,orientation_z,orientation_w,angular_velocity_x,angular_velocity_y,angular_velocity_z,linear_acceleration_x,linear_acceleration_y,linear_acceleration_z
1727706188.3105018,6.132400791909353e-07,-1.3165519695774888e-09,-1.4274793684321274e-06,0.9999999999987931,-3.8584223424838624e-08,3.995493614318591e-10,1.4912154295628505e-14,2.5686477684105e-08,1.2009713753406933e-05,9.799969111493859
1727706188.3133113,6.126728151680118e-07,-1.3106789093420946e-09,-1.4274793679880382e-06,0.9999999999987934,-3.7438064266970685e-08,3.876711901342178e-10,1.2250718770555797e-14,2.5576788652330086e-08,1.199888070234387e-05,9.7999700289195
1727706188.335242,6.121224024658752e-07,-1.304976288301206e-09,-1.4274793680990605e-06,0.9999999999987939,-3.63253939906534e-08,3.764502615284443e-10,9.805126349504728e-15,2.547060483387308e-08,1.1988364674342493e-05,9.799970919101069
1727706188.3649426,6.115883460302759e-07,-1.2994433113008435e-09,-1.4274793677659936e-06,0.9999999999987941,-3.5247004130732997e-08,3.6521251541107315e-10,9.512285375616149e-15,2.5367704470669743e-08,1.1978205333899172e-05,9.799971782806757
1727706188.4059148,6.109008724619671e-07,-1.2923222748654597e-09,-1.427479367543949e-06,0.9999999999987945,-3.3856823156433264e-08,3.50513385479481e-10,1.633717000010668e-14,2.5221497422875992e-08,1.1965056901065568e-05,9.799972894692957
1727706188.4950874,6.104031080970994e-07,-1.287166909806847e-09,-1.427479367155371e-06,0.9999999999987947,-3.285120946747777e-08,3.4031569360025393e-10,1.0870600826909468e-14,2.5126189378606575e-08,1.1955562996707561e-05,9.799973699738157
1727706188.7360454,6.099201210323276e-07,-1.2821665541867024e-09,-1.4274793669888375e-06,0.999999999998795,-3.1875779886180804e-08,3.2991956488788814e-10,1.415600012327912e-14,2.5028594179692013e-08,1.1946338721760576e-05,9.799974480893528
1727706188.7375953,6.092983776079758e-07,-1.2757310786630974e-09,-1.427479366822304e-06,0.9999999999987954,-3.062037891439017e-08,3.1692158066259544e-10,1.0417701254730159e-14,2.490909950319459e-08,1.1934488242412682e-05,9.799975486419669
1727706188.7638385,6.088482015655423e-07,-1.2710710376072882e-09,-1.4274793666002594e-06,0.9999999999987956,-2.971082966071143e-08,3.0760354914043893e-10,7.865217748094353e-15,2.4824315462129677e-08,1.1925888467866818e-05,9.7999762145114
1727706188.793776,6.084113930384487e-07,-1.2665490143766232e-09,-1.4274793665447483e-06,0.9999999999987961,-2.8828219032443134e-08,2.9857449120646947e-10,7.178222663780796e-15,2.4736198134941753e-08,1.1917542634996137e-05,9.799976920966147
1727706188.9015973,6.078490984301971e-07,-1.2607279041281985e-09,-1.4274793662116814e-06,0.9999999999987964,-2.7692005849192602e-08,2.8653400082636985e-10,1.452610432569629e-14,2.4616666760226457e-08,1.1906815440097557e-05,9.799977830371546
1727706188.9294987,6.08559952926893e-07,-1.2588318916399727e-09,2.3178898605702436e-05,0.9999999997311841,1.9673299699653014e-07,2.804266139783242e-09,0.004921275591151376,-0.06838096715544348,0.6104078095665508,9.799982148770372
1727706189.1040015,6.083112477928626e-07,-1.2003577696535316e-09,0.00012173418363942146,0.9999999925902094,-2.7977746012546192e-08,8.483387438733205e-09,0.006766068310179948,-0.0015121664809456376,0.0015305499155582076,9.79997905076303
1727706189.1051693,6.066171827487362e-07,-1.1655457485064347e-09,0.00013442118150169824,0.9999999909652891,-2.9675864787442697e-08,6.891928720792851e-10,0.00014408054647175136,0.005246020963655604,-0.011545588389977336,9.799980300105487
1727706189.142891,6.061221256768982e-07,-1.159894819742053e-09,0.0001346961789336909,0.9999999909282863,-2.420432790279794e-08,2.523764542692359e-10,8.541883935577599e-07,3.1157604991695386e-05,1.1502420926498839e-05,9.79998054585456
1727706189.4137018,6.057663322280579e-07,-1.1562685762723607e-09,0.0001346977892902057,0.9999999909280695,-2.3482584422615643e-08,2.421655596853507e-10,1.825691430005464e-08,6.896621353429308e-07,1.1949301081007006e-05,9.799981123485026
1727706189.4154804,6.054211031286801e-07,-1.1527549292908759e-09,0.00013469782849295786,0.9999999909280646,-2.278541801580092e-08,2.3484804486904216e-10,3.9023626696963274e-10,3.835004019426471e-08,1.1862469353355893e-05,9.799981684133579
1727706189.4397848,6.049766948562167e-07,-1.1482313316960067e-09,0.00013469783575542627,0.9999999909280638,-2.188835303576516e-08,2.2570329620829958e-10,2.3222576767444958e-12,2.4132887519239375e-08,1.18520134116195e-05,9.799982405834731
1727706189.4707196,6.046549138043161e-07,-1.1449568673392921e-09,0.00013469784064779056,0.9999999909280632,-2.1238476861366387e-08,2.1882723213930664e-10,6.130671172075291e-14,2.3980068637223137e-08,1.1845853117516885e-05,9.799982928405232
1727706189.4987955,6.043426897255913e-07,-1.1417771161723253e-09,0.0001346978455358805,0.9999999909280628,-2.0607710836151444e-08,2.1245036611631653e-10,1.5528718237129747e-14,2.391011092717615e-08,1.183989135289744e-05,9.79998343544568
1727706189.5467403,6.039407663582603e-07,-1.1376825851254146e-09,0.0001346978520532227,0.9999999909280622,-1.9795799716920924e-08,2.0464599607836864e-10,-2.422893095890141e-16,2.3851119227677306e-08,1.1832225684933542e-05,9.79998408815404
1727706189.7831385,6.036497551778367e-07,-1.1347159149209588e-09,0.00013469785694120162,0.9999999909280617,-1.920737967225257e-08,1.9849276024457094e-10,4.8909245585092345e-15,2.3786511912575605e-08,1.1826656216679621e-05,9.799984560761153
1727706189.7842617,6.126408771281833e-07,-1.13965969148869e-09,0.00013588335391417905,0.9999999907676697,5.933821542889813e-07,-3.097214244195443e-10,0.0001176109049145876,0.0008418892219235554,1.7309124896458252,9.799982776200801
1727706189.8144586,6.213642278914308e-07,-1.1433402593194692e-09,0.00013875171971394762,0.9999999903737873,5.757016915406829e-07,-1.5628161675563715e-10,0.00022718092401240902,0.0008661271731811731,1.7307595983016415,9.799983194771361
1727706189.8538284,6.249237855165731e-07,-1.3420311971756577e-09,-0.00039762338792348473,0.9999999209476472,-3.824727279754067e-08,-5.087654356393376e-08,-0.04280229812267276,0.06971276180087362,0.07440546729013449,9.799983061477715
1727706189.9320512,6.280277023481808e-07,-1.7606556822826345e-09,-0.0010799557181722652,0.9999994168474562,1.1570365227449002e-07,-5.8453214422108886e-08,-0.04934927821088407,0.09501821322776481,0.5172413146701159,9.799976982542493
1727706189.9575646,6.302859598986822e-07,-2.254204525657014e-09,-0.0018453560995091989,0.9999982973287849,5.57442017206434e-07,-6.528664959510136e-08,-0.050375528612887265,-0.008630511639993375,1.7276149918195944,9.799996921573998
1727706190.1787057,6.328848178461944e-07,-2.968372552202222e-09,-0.002991137658172327,0.9999955265375486,-7.459859009199643e-08,-7.782807350715501e-08,-0.061064043201901536,0.020910875448445946,0.010860590445428817,9.799986926129607
1727706190.1800296,6.398665985417683e-07,-3.583435852943546e-09,-0.0038213292329661863,0.9999926986945873,3.088581582015129e-07,-6.947224101956405e-08,-0.04814143775640632,-0.12794372407862648,1.0814264761655519,9.79998176793963
1727706190.205284,6.388253539924233e-07,-4.0320024510216715e-09,-0.004492514944639037,0.9999899086036138,-8.921009789575637e-08,-5.75141597042375e-08,-0.0443424463025007,0.007750316705663056,0.0023864968727518353,9.799987988832719
1727706190.5034487,6.370625165611824e-07,-4.601843297246774e-09,-0.0053778479709858384,0.9999855392708412,-8.677545999092377e-08,-5.70752049738015e-08,-0.04425972726655189,0.010688614780371333,-0.00026460092110509837,9.799988594333714
1727706190.5055745,6.438476357906498e-07,-5.072432465542079e-09,-0.0060345082829042496,0.9999817921889222,2.8635068937382865e-07,-5.760822756772997e-08,-0.04587557540487444,0.06310592254926936,1.0683123202387237,9.799982685503522
1727706190.5281565,6.426758211522232e-07,-5.527642548219728e-09,-0.006741185304948216,0.99997727795199,-9.704285425990786e-08,-6.155359831751379e-08,-0.04726058505493326,0.014741541818656171,0.002828416897455268,9.799989130374643
1727706190.5585697,6.412315334513811e-07,-5.984953919340152e-09,-0.0074504773213199815,0.9999722448084613,-9.521668318740896e-08,-6.148298024232865e-08,-0.04729050962415919,0.013686444853226674,-0.0002900284970394513,9.79998958362171
1727706190.5979402,6.422127646772937e-07,-6.630658871675682e-09,-0.008440657086572101,0.999964377019269,-2.5622341309856993e-08,-6.742484437302852e-08,-0.052275853385779954,0.03084501466161662,0.1981468754097394,9.799981121456765
1727706190.6587555,6.408369004399578e-07,-7.138206621173518e-09,-0.009230304290065106,0.9999573998337639,-9.42417666836328e-08,-6.849704362023251e-08,-0.052689281674316225,0.01640664342681194,0.0002206793533274413,9.799990267837154
1727706190.689648,6.404387539365994e-07,-7.703687316372712e-09,-0.010136568542898794,0.9999486236691187,-9.012398049434293e-08,-7.946161404038424e-08,-0.06134286206503351,0.025849530447550728,0.010079292472654813,9.799990144417077
1727706190.9217584,6.283086147968191e-07,-8.355337887494893e-09,-0.01132742851572055,0.9999358426233287,-7.697082071422667e-07,-7.389470466358567e-08,-0.0576337198137022,-0.002029550846729716,-1.9253951111208627,9.799993508088114
1727706190.9384892,6.169886221221789e-07,-8.752584461379242e-09,-0.012155102033772736,0.9999261240182535,-7.46780455849043e-07,-6.76678716236309e-08,-0.053977061087532904,-0.005419119776241787,-1.924997608993675,9.799993728694343
1727706190.970958,6.060059242963708e-07,-9.097976280095385e-09,-0.01292978059403399,0.9999164068928076,-7.24532156054795e-07,-6.191299437965373e-08,-0.05050573354623136,-0.008368574502886179,-1.9246141031227262,9.799993942784683
1727706191.087471,5.918698158627455e-07,-9.485867341558893e-09,-0.01388495658728428,0.9999035993435661,-6.958927489887639e-07,-5.492199810549982e-08,-0.04615678731711094,-0.011675593070308833,-1.9241231160363188,9.799994218406344
1727706191.118339,5.874049451713489e-07,-9.9180020853323e-09,-0.014998052129389983,0.9998875228904394,-1.898259069022741e-07,-9.714634686271339e-08,-0.09388275451566849,0.28579529493466566,-0.5203285561093655,9.799993583800275
1727706191.1538403,5.850453308565119e-07,-1.0846519432281246e-08,-0.016932701461700506,0.9998566315331745,-1.4667280309007113e-07,-1.6056523215340503e-07,-0.14656322916151837,0.24901233344681417,-0.4226432547737986,9.799992904511354
1727706191.3348212,5.83859186460431e-07,-1.2269095431765982e-08,-0.019715569389703147,0.9998056292716593,-1.0533923039841678e-07,-2.290652318739226e-07,-0.20535061784565906,0.2538274199150169,-0.3195248906516354,9.799990504246097
1727706191.3432357,5.821143849391783e-07,-1.49043553318128e-08,-0.024545741956834177,0.9996987078872559,8.50428486984715e-09,-2.956532688843088e-07,-0.2551375038730822,0.05394530597014921,-0.049235424584997606,9.799994930845513
1727706191.3748012,5.824229826963976e-07,-1.7163642848156754e-08,-0.028390319373846673,0.9995969136434502,2.503487100461299e-08,-2.998546146938075e-07,-0.25654455337085824,0.0024268701787784957,-0.009179512539335362,9.79999303032504
1727706191.618935,5.82703033709509e-07,-1.9479235468370512e-08,-0.032565789066609174,0.9994695940258158,2.227025460965184e-08,-3.36981376737884e-07,-0.3004215343425892,0.308805019992639,0.022536220893586065,9.799993194598077
1727706191.6415706,5.830681150417033e-07,-2.3379755516257158e-08,-0.039662403993385,0.9992131372780908,3.519985271281743e-08,-4.397494044499661e-07,-0.38743073757927804,0.29999855456624785,0.04557110622452293,9.799993706744385
1727706191.6735675,5.833523476417697e-07,-2.6869299749856695e-08,-0.045638686059132516,0.9989580122980419,2.618687511152596e-08,-4.689535223356123e-07,-0.40079712795629907,0.021765994089216836,-0.018858844051807114,9.79999367865795
1727706191.7202814,5.835580950954249e-07,-3.047618679407113e-08,-0.051944156792548324,0.9986499910252689,3.049997879318808e-08,-5.040287025677013e-07,-0.4380402356107687,0.2108820804877764,0.014600848794748855,9.799994056638079
1727706191.7778468,5.837512024992815e-07,-3.571184784542927e-08,-0.060959075771393534,0.9981402662355404,1.8589282514005373e-08,-5.360273461994659e-07,-0.4689234226746379,0.3114093385589618,-0.007654844053391476,9.799994009797073
1727706191.8126593,5.839019126419879e-07,-4.00334109544218e-08,-0.0684761364037928,0.9976527545909281,2.948057461994507e-08,-5.962627655063412e-07,-0.5106513759511115,0.08313683449116788,-0.017964822633058937,9.799994128778943
1727706192.021229,5.838771745197255e-07,-4.4623403838622964e-08,-0.07647639462416345,0.9970713921605344,1.7160389982570644e-08,-6.399295722653662e-07,-0.556680431811818,0.3130604819403789,-0.028743290120184485,9.799994489098435
1727706192.0382464,5.839381195754585e-07,-4.9747785939243486e-08,-0.0854152731536797,0.9963454376428582,6.166777532299063e-08,-7.135421447478987e-07,-0.614547922664104,0.202694812975017,0.06383850714828952,9.799995422880464
1727706192.0830326,5.838924698330045e-07,-5.70975179512874e-08,-0.09780619977426919,0.9952054799313413,2.8738468733659234e-08,-7.339069990556199e-07,-0.6233755238309797,0.012292158580829335,-0.05345750892286165,9.799994886323237
1727706192.1479094,5.837421529542592e-07,-6.264068002039546e-08,-0.10711012588222257,0.9942471628992209,2.775883473479572e-08,-7.347912766357818e-07,-0.6235757834351962,0.007947992576676426,-0.05439266396785292,9.79999504794963
1727706192.1875226,5.835268466915399e-07,-6.818438106035732e-08,-0.11640528396772976,0.9932017971510356,2.689333731773379e-08,-7.352463668093092e-07,-0.6235878306983212,0.007686618077056323,-0.05443344557798357,9.799995197087648
1727706192.2177534,5.831189680027401e-07,-7.591838795458626e-08,-0.12970314337892525,0.9915528702985434,3.390428054920554e-08,-8.062499013680975e-07,-0.6861476858579665,0.08285823914205591,-0.04111134431184366,9.79999504516504
1727706192.3976347,5.825479326216237e-07,-8.205604896683945e-08,-0.1402575785282158,0.9901150497114237,1.1726470911775718e-08,-8.499136812448968e-07,-0.7320490597581888,0.3174199095824343,-0.08188906473266977,9.799995561727526
1727706192.4152405,5.821199797242132e-07,-8.874735138260851e-08,-0.15175068858643959,0.9884188021851842,8.874547367865962e-08,-9.25718126959399e-07,-0.7936980652969571,0.25927071536410723,0.10152231845055512,9.799997000736708
1727706192.4769692,5.813246439173013e-07,-9.82396422358905e-08,-0.16761195198372503,0.985853048659818,3.2369382127506225e-08,-9.520630591229122e-07,-0.8049174132603869,0.01861453681205601,-0.08937609767101003,9.799995863892846
1727706192.721975,5.803070215019896e-07,-1.0539303292265e-07,-0.17982821404545696,0.9836980295969253,8.817288288467689e-09,-9.904144493375838e-07,-0.8489117955452218,0.32098333471867,-0.12545010795168157,9.799996047284536
1727706192.7300658,5.791869545077357e-07,-1.1305663626152662e-07,-0.1929740684537618,0.9812038569553497,5.010101329751773e-08,-1.0672872888278358e-06,-0.9125494671947099,0.2911796583502303,-0.041664124829766475,9.79999688473935
1727706192.7609758,5.784978038535373e-07,-1.2130761352271577e-07,-0.20663079740251417,0.9784189867150228,4.108181530955154e-08,-1.1043088708800828e-06,-0.9321501205126514,0.04411625304166745,-0.10714554797504781,9.799996022775675
1727706192.7996876,5.766540376493009e-07,-1.3226989681184188e-07,-0.22496167229034897,0.9743676133780206,5.212316217332258e-09,-1.119744498759316e-06,-0.9552445910543451,0.3254906517367661,-0.170732638103096,9.799995907788572
1727706192.874528,5.753238217122025e-07,-1.4087372529583473e-07,-0.23930933374265195,0.9709433777431602,4.4178461923364e-08,-1.173039129407707e-06,-0.9892305248901962,0.07279694164800415,-0.11385651351909085,9.799996181462145
1727706192.9129474,5.736872963114873e-07,-1.4960102303144752e-07,-0.2537185259438874,0.9672780932040741,3.7711251177976045e-08,-1.179269425872119e-06,-0.9915648800507788,0.022505884754878643,-0.13701263752597143,9.799996661535285
1727706193.2000742,-5.709151665450061e-07,1.6116946513995573e-07,0.2731681837330657,-0.961966290155547,1.9541773818137584e-09,-1.2181446978505681e-06,-1.035508796311784,0.32772206684313193,-0.20851248575595444,9.79999689435888
1727706193.203268,-5.682752335525623e-07,1.7024141719942787e-07,0.28870537648248445,-0.9574179889628953,2.1508202195072245e-09,-1.296146060136322e-06,-1.1011788482778426,0.32685978589701603,-0.2417656483808731,9.799997033461365
1727706193.2302651,-5.668077913092644e-07,1.8024437227996298e-07,0.3048421671970699,-0.9524028838145335,6.608749623334741e-08,-1.3491957680605443e-06,-1.1335443923221438,0.08815725919383642,-0.11193498297322921,9.799995663023845
1727706193.324225,-5.633566052397579e-07,1.9342806924845288e-07,0.3264011738422716,-0.9452313334385569,4.3296939057424107e-08,-1.3577362734049962e-06,-1.1364481090566345,0.02675868590811978,-0.18042400512889578,9.799997171231729
1727706193.3627348,-5.605203964277628e-07,2.0326714066243238e-07,0.34246685469459787,-0.9395299108784316,4.188547455006458e-08,-1.3591373009311658e-06,-1.136514050059761,0.025333234378541358,-0.1808350192878976,9.799997266549868
1727706193.3834665,-5.570523225279386e-07,2.1294605123540147e-07,0.35873990623537694,-0.9334375606723126,-4.3880967822299275e-09,-1.397725948738057e-06,-1.1803229060035934,0.33384177474853455,-0.2844250190558178,9.799997485391149
1727706193.6188045,-5.530098620814753e-07,2.2295794157182903e-07,0.3758175456773699,-0.9266936777385946,-3.966083272877203e-09,-1.4757200787492325e-06,-1.2459509972261595,0.3316232579895083,-0.3222337320469643,9.799997615273345
1727706193.6289442,-5.490305143403832e-07,2.3784673175967683e-07,0.39956931729636047,-0.9167029838911632,1.3995275735011427e-07,-1.5598168979847667e-06,-1.3064378053710013,0.16624380957066603,0.02135953057504469,9.799996835153477
1727706193.6718574,-5.450135262759813e-07,2.4900853509852e-07,0.4175259820593755,-0.9086649846367993,5.290383212007553e-08,-1.5768352977878312e-06,-1.312512543624858,0.041924864651023,-0.23656059105667732,9.799997615763766
1727706193.921488,-5.403340997445248e-07,2.599381666526192e-07,0.43517082089522346,-0.9003479086669873,-1.1697502436337743e-08,-1.558947406260265e-06,-1.2758239950251495,-0.4846327448565272,-0.4698106707525976,9.799996788879884
1727706193.9287603,-5.335298232729831e-07,2.7301921524345813e-07,0.45635338257894953,-0.8897986234021671,-1.2116103971354518e-08,-1.379018405265596e-06,-1.1276602089421581,-0.49992683828998224,-0.38442925708566716,9.799998060876883
1727706193.9594765,-5.28789845418015e-07,2.816768649540572e-07,0.4703573994236394,-0.8824760148622012,-1.2242687669129097e-08,-1.244346667420392e-06,-1.0164771859132224,-0.5084029909197023,-0.32706026187519815,9.799998063319697
1727706193.9892423,-5.24409782083164e-07,2.893724854729831e-07,0.48278391000674326,-0.8757395139185179,-1.2225693943977289e-08,-1.1099066985680763e-06,-0.9052735899013711,-0.5147081277616847,-0.2754522005402716,9.799998070645028
1727706194.0543504,-5.301938283744276e-07,3.050921055276582e-07,0.49825166800946596,-0.8670324534441666,6.277335134626468e-07,-1.076765599527206e-06,-0.8767459577769233,-0.06745268792491312,1.627440554852343,9.799995707932393
1727706194.0869477,-5.34084844381961e-07,3.16745090399682e-07,0.5094259750132641,-0.8605144833071665,6.089031335231646e-07,-1.0694122254626353e-06,-0.8553633857320757,-0.01945973386162216,1.6370789543364421,9.799995733071707
1727706194.3114734,-5.366400364733818e-07,3.277178408490749e-07,0.5203275360778229,-0.8539667764022125,5.928199976302236e-07,-1.071129343529188e-06,-0.8440807374696057,0.022127084911230263,1.6423222045056127,9.800000255123551
1727706194.317386,-5.387311067388098e-07,3.385243452221102e-07,0.530888591488309,-0.8474416224302146,3.224052864753971e-07,-1.057056040019859e-06,-0.814734308635106,-0.0614325443704518,0.9349886912611015,9.799991708574375
1727706194.3535829,-5.381554264902877e-07,3.5042540379667525e-07,0.5439380685413315,-0.8391253646453032,2.729265961417487e-07,-9.819546635117532e-07,-0.7470899977206158,-0.06708354708960466,0.8549818494062611,9.79999693888144
1727706194.3896506,-5.370672988789908e-07,3.5835091334535016e-07,0.5528604531865061,-0.8332738561253402,2.6573261247100356e-07,-9.177489462418516e-07,-0.6934701752572383,-0.06166907061940138,0.8735471844365149,9.799999342270377
1727706194.4194756,-5.338877111558973e-07,3.6437689004830955e-07,0.5612294003641255,-0.827660292732777,-7.63225661961439e-08,-8.771217677681778e-07,-0.6670588111515072,0.14198297924768372,-0.023319506322645997,9.799996803536224
1727706194.4597232,-5.304955532017864e-07,3.727010716754985e-07,0.5719813565690539,-0.8202666199090417,2.1090427268022786e-07,-8.42688463177076e-07,-0.6340135823141435,-0.027459240553666137,0.7622581741532688,9.799994058846828
1727706194.691693,-5.286186749904139e-07,3.7906495488252705e-07,0.5796252232284405,-0.8148831821782538,5.128028663369751e-07,-8.165026978290272e-07,-0.6187848749800711,0.11759486880718051,1.629633297719808,9.800007938209626
1727706194.7217197,-5.286517832288461e-07,3.8658887909070434e-07,0.5868157105846403,-0.8097205208036997,2.4630730240606716e-07,-7.716620613638698e-07,-0.5725556906488538,-0.042735379630357145,0.9104219590265351,9.79999713323723
1727706194.7682922,-5.245343002973108e-07,3.9281248502283045e-07,0.595707680717898,-0.8032013191804862,-9.026018619278399e-08,-7.464575950180328e-07,-0.5672335509370422,0.3830038836439149,0.05186100697228504,9.799999662959685
1727706195.04769,-5.22207235415383e-07,3.982957645355146e-07,0.6025747793045083,-0.7980624257197502,4.996141041430315e-07,-7.596173014989038e-07,-0.5692546012290113,0.14158133991701302,1.6438306994306542,9.800008392669437
1727706195.0579062,-5.229448031858663e-07,4.061016821144838e-07,0.6093333945726271,-0.7929141279219085,1.3861618345732982e-07,-7.630537696027686e-07,-0.5721862777642004,0.37206733009053566,0.7119098186356002,9.79999195471427
1727706195.0855582,-5.192620047947378e-07,4.1071333808685776e-07,0.6161683070106387,-0.787614510680958,9.804157019551958e-08,-7.765279617165293e-07,-0.5780599851036811,0.277539680699635,0.5839150945905557,9.80000154248772
1727706195.1250594,-5.136485850220593e-07,4.1635948506368e-07,0.625218789675513,-0.7804495275392569,1.063350897929008e-07,-7.738240631368552e-07,-0.5742881774656039,0.20987843428619476,0.5931718433395392,9.80000219112269
1727706195.1862493,-5.088377462005692e-07,4.200166262018946e-07,0.6318885703290238,-0.775059245920663,-1.1513545275843836e-07,-7.669099498210047e-07,-0.570846123428381,0.24790370936017547,-0.0161974435946331,9.79999862115845
1727706195.2158458,-5.052379273193623e-07,4.2458166136300767e-07,0.6384444283567695,-0.7696679231329328,-4.883900884023318e-08,-7.566655614846197e-07,-0.5625660839192206,0.22573214499788052,0.1658696244032144,9.799993964520613
1727706195.4614105,-5.009583799492512e-07,4.30971403103873e-07,0.6470104014185061,-0.7624811738369852,4.900096526932368e-07,-7.459303348295352e-07,-0.5550089492770933,0.1902989681948343,1.6481569828834748,9.800008498685237
1727706195.4670324,-4.971984550201749e-07,4.351126795432553e-07,0.6531681260013026,-0.7572129153517588,-1.1084554230074579e-07,-7.231853714268916e-07,-0.5370570094665389,0.23354390992670845,0.007772269893071038,9.799997822188503
1727706195.4983425,-4.932436680368638e-07,4.3896937811683145e-07,0.6592866170919778,-0.7518917186157723,-6.660297814584747e-08,-7.287958978398518e-07,-0.5437404989267036,0.29362775226596644,0.13387619661235295,9.799995557653665
1727706195.5452569,-4.867182410351814e-07,4.4306386868358095e-07,0.667405236860148,-0.7446947359900007,-1.1473117970445886e-07,-7.247140103145833e-07,-0.5412138188677479,0.2599546721217956,-0.013804350882827896,9.799998896324096
1727706195.5700002,-4.820388363560398e-07,4.461900656905594e-07,0.6733379285462768,-0.7393348591677369,-1.2737683499146575e-07,-7.095642031983948e-07,-0.5305866342571997,0.23899716252844533,-0.05556858343611351,9.79999860952213
1727706195.602595,-4.772138848253081e-07,4.4903388041685814e-07,0.6791557709259679,-0.7339941681086606,-7.271847481442405e-08,-6.988652486888908e-07,-0.5241717959160634,0.22990944465978327,0.0867966780464996,9.799999967920995
1727706195.8401494,-4.724684722405905e-07,4.5183266088072607e-07,0.6848823135624158,-0.7286537014034619,-1.0681116786587793e-07,-6.918854630410709e-07,-0.5210420339588853,0.2505224853493736,-0.010960251552484524,9.799999012443768
1727706195.881578,-4.668897903125584e-07,4.5532580238367406e-07,0.6914652786805693,-0.7224096956566802,-9.751649392604069e-08,-5.738411377417018e-07,-0.4303628304646334,0.09660522836339476,0.007706676328272573,9.79999793415651
1727706195.9102733,-4.62749028733826e-07,4.571931673324783e-07,0.69596343480509,-0.718077222458614,-1.1451177152035898e-07,-5.405633435670282e-07,-0.4087978594440285,0.13192610441326677,-0.0374281852590705,9.799999212370366
1727706196.1672282,-4.587299786402152e-07,4.5889513795389515e-07,0.7002993076721036,-0.713849339618348,-1.1598641694594117e-07,-5.26875263713491e-07,-0.40140531002614704,0.1722927917546817,-0.04277666977061483,9.799999149818929
1727706196.1717496,-4.539584035348023e-07,4.6088170828229785e-07,0.7052410510648552,-0.708967601440658,-1.031164913182637e-07,-4.3721019636012723e-07,-0.3350713927051402,0.12444584489441567,-0.010882036875392818,9.799999053518123
1727706196.1923542,-4.5057669707186824e-07,4.6208647997833953e-07,0.708747670679241,-0.7054620750304961,-1.0406594940132997e-07,-4.254583251742636e-07,-0.3281082087158998,0.148456261093945,-0.0169326292383816,9.799999179694433
1727706196.2301953,-4.472606086396263e-07,4.632611717126996e-07,0.7122064272841,-0.701970088347647,-1.0113558713859472e-07,-4.229042645328855e-07,-0.3276124270077987,0.16555099209147237,-0.014395988785644942,9.7999991983076
1727706196.3001308,-4.430489276049097e-07,4.646731477031677e-07,0.7164601353247402,-0.6976280344782904,-9.756369788181564e-08,-3.8681415134685843e-07,-0.30112737693988917,0.1458219033957944,-0.013016464020255926,9.799999227989575
1727706196.3286548,-4.399880638506823e-07,4.6567188176797847e-07,0.7195136572309635,-0.6944782912789378,-9.621806297243145e-08,-3.694326854299323e-07,-0.2754328844337853,-0.20536435466217434,-0.06372233812898673,9.799999255887062
1727706196.5765173,-4.371955375392451e-07,4.6646117998897714e-07,0.7222732661205896,-0.6916077855599134,-9.234948262153768e-08,-3.366103138307389e-07,-0.26426815254627184,0.12490169406333962,-0.010549836347378551,9.799999271934619
1727706196.577913,-4.346010175361465e-07,4.6693772347711775e-07,0.7244957766383603,-0.6892792392294811,-8.78411204929054e-08,-2.6038331448014286e-07,-0.20440197418396347,0.028682661073833795,-0.011192927776208993,9.799999085987807
1727706196.6039624,-4.310641433953182e-07,4.6691854022327333e-07,0.7273590565581173,-0.6862570967519984,-8.515297327044504e-08,-2.610266493340625e-07,-0.20852866085626948,0.10501169768915725,-0.006702772468245103,9.799999360851071
1727706196.6351995,-4.288207674065622e-07,4.673454047671021e-07,0.7295022811377458,-0.6839783781775731,-8.233329685684188e-08,-2.6071361702221445e-07,-0.2085529002761413,0.10417112659360185,-0.0058366655935675835,9.799999336947385
1727706196.6727722,-4.269467519419304e-07,4.68149685925057e-07,0.731625943871228,-0.6817062991157798,-7.920208742397702e-08,-2.588577681528998e-07,-0.20719146697313862,0.10299352450931117,-0.0011004199103518799,9.79999913997019
1727706196.7112777,-4.241416656332696e-07,4.6882345476549355e-07,0.7343640579271281,-0.6787557958679997,-7.469658950726283e-08,-2.430485701983847e-07,-0.19391722668808128,0.05850724238366986,-0.0012095407848277408,9.799998969592
1727706196.9199371,-4.220766923926927e-07,4.691934985656305e-07,0.7363254125030951,-0.6766275836098825,-7.587578304702905e-08,-2.3935454688538984e-07,-0.19282849034507363,0.0960948670157341,-0.005088581185425032,9.799999399293469
1727706196.950703,-4.203140424395858e-07,4.6939954266992147e-07,0.7376467796219366,-0.675186810085171,1.0603466792450176e-08,-1.4000954661268145e-07,-0.10497774898503753,-0.24019286020677316,0.18769142868157682,9.800001551096646
1727706196.9944806,-4.186598707803528e-07,4.6916697728236537e-07,0.7388763754446064,-0.6738410063282328,-6.913035857261051e-08,-9.783047638026335e-08,-0.08262779492851935,-0.0014760181344514068,-0.0023609673933502437,9.79999923867522
1727706197.253554,-4.174846317359522e-07,4.6884151926058393e-07,0.7397001552865793,-0.6729366093984009,-6.874091781375671e-08,-9.417832021653321e-08,-0.08142775341230117,0.03991955061486804,-0.0010223360178439331,9.799999453610216
1727706197.2572849,-4.1641133087093586e-07,4.684593795823889e-07,0.7403338382735823,-0.6722393977644514,-6.6584319486606e-08,-6.676145535731239e-08,-0.05920236947616103,0.0035358543638524583,-0.004341574915698138,9.799999483815762
1727706197.2701488,-4.1544499702353125e-07,4.68023010571638e-07,0.7409239416691775,-0.6715889462022268,-6.455869700756055e-08,-6.464065319146596e-08,-0.05847160753314314,0.028739859400774698,-0.0005478940801822132,9.799999485643102
1727706197.3102891,-4.142073743202359e-07,4.6745433282137945e-07,0.7416630106613921,-0.670772672830587,-6.198704328394079e-08,-5.843376333820685e-08,-0.053382077146619106,0.02282846119040553,-0.0009677112188876048,9.799999507759614
1727706197.384448,-4.133653252975474e-07,4.6699267433793125e-07,0.7421005348534898,-0.6702885917049276,-6.006195471312433e-08,-4.456582246123322e-08,-0.042321751404557593,0.012659748473567038,-0.0015086080992474148,9.799999524944056
1727706197.4161465,-4.1257731889822245e-07,4.665192381145853e-07,0.742504702445274,-0.669840851879211,-5.8339706461734346e-08,-4.06503562280758e-08,-0.036392971674163783,-0.058786647751675025,-0.011488716447622404,9.799999539261712
1727706197.6527064,-4.116231133942919e-07,4.6585653526918124e-07,0.7429654207835693,-0.6693298017565834,-5.589820225401967e-08,-3.414156477889384e-08,-0.03420547365440911,0.016663398555156472,-0.00022539898093580516,9.799999552952096
1727706197.6565907,-4.1099259684023736e-07,4.653211196998515e-07,0.7431727647717447,-0.6690995753257772,-5.408851178377077e-08,-1.5609316051467495e-08,-0.01986333044993283,0.015599525586050367,0.0007720816909512343,9.79999957186034
1727706197.6632366,-4.1041946818952084e-07,4.6476929273309725e-07,0.743373508528749,-0.6688765407885622,-5.2492094277829223e-08,-1.6327164775195458e-08,-0.02002157958912075,0.010141013463228267,-3.0787690631383735e-05,9.799999578734928
1727706197.702865,-4.096739524709099e-07,4.6406582469283684e-07,0.743643913312246,-0.6685758971076249,-5.042870129087298e-08,-1.698919457211559e-08,-0.020313316540506735,0.010388201894917327,-1.7357618231236424e-05,9.79999959527279
1727706197.7382185,-4.091283880492379e-07,4.635615544285548e-07,0.7438476496046924,-0.6683492157376955,-4.893329314479147e-08,-1.722032761069418e-08,-0.02031955830403541,0.010172911239834308,-4.997960059790644e-05,9.799999607425606
1727706197.7672584,-4.085951410228293e-07,4.630756947163935e-07,0.7440513246705975,-0.6681224635166426,-4.748260879783039e-08,-1.742624688559827e-08,-0.020319693010955407,0.010168262753926915,-5.0697655758027475e-05,9.799999619089139
1727706197.7992113,-4.012038396737616e-07,4.5493223598473194e-07,0.7442475520669196,-0.6679038712584542,-7.258938596659961e-07,-1.5454487370250556e-08,-0.01922027724512694,0.0028271347927953066,-1.9235017559123717,9.800002099728236
1727706198.039632,-3.9170429364912587e-07,4.444375346513191e-07,0.744492540894494,-0.6676307786135306,-6.971940724432356e-07,-1.3403476575542745e-08,-0.01782853643011478,0.0010449877666726846,-1.9232131946815743,9.800002054189166
1727706198.0706658,-3.8483674305772147e-07,4.368308144197541e-07,0.7446644208034937,-0.6674390611801637,-6.764154869511923e-07,-1.200103197369698e-08,-0.01683932499225976,-0.00013429505344253142,-1.9229985260175066,9.80000202117721
1727706198.1038246,-3.7818162955028607e-07,4.2944378277811196e-07,0.7448266568809635,-0.6672580094680017,-6.562535363919053e-07,-1.0707988105685653e-08,-0.01589592073791847,-0.001188561038591767,-1.9227853458478659,9.800001989161128
1727706198.3497405,-3.826640976153334e-07,4.3451542655085997e-07,0.745026935525354,-0.6670343809290228,6.609927281378389e-07,-1.0678556729858029e-08,-0.014439043114556292,-0.00017051957478849956,1.7295026960226807,9.799997536262834
1727706198.3736136,-3.8912184104500745e-07,4.4177805986897775e-07,0.7451642312060629,-0.6668810002772089,6.413123505706665e-07,-9.905260110541987e-09,-0.013375245311379977,0.0006704188188981301,1.7294074639254173,9.799997516427078
1727706198.403121,-3.9538829167145465e-07,4.488234749426647e-07,0.7452914009848824,-0.666738875136011,6.222167366266232e-07,-9.16933478324079e-09,-0.012392328325450749,0.0013924070269716341,1.7293063911515765,9.799997497234765
1727706198.4749653,-4.0312862235940684e-07,4.5752210097683935e-07,0.7454611860542624,-0.66654903802061,4.990626359441756e-07,-1.060039603681395e-08,-0.015594055988509237,0.06353010403985171,1.4644112277658694,9.79999585921905
1727706198.503296,-4.033059571691531e-07,4.5798673057042733e-07,0.7458081152877805,-0.6661608328103027,-1.3729674913984615e-07,-3.910627484818407e-08,-0.03397214299359385,-0.03953423691973758,-0.29482790755013105,9.799997038892862
1727706198.5372577,-4.027615032343698e-07,4.57718269306553e-07,0.7461337543412171,-0.6657960803671861,-3.1917549824476606e-08,-3.458034463548018e-08,-0.03243352179808548,0.01367857038697001,-0.001118995955049513,9.799999763052137
1727706198.7525346,-4.062405230074702e-07,4.619594045850106e-07,0.7464579883752834,-0.6654325447333835,5.341846028683033e-07,-3.5453381013758765e-08,-0.033332139415794715,0.03890206145966294,1.586153727476585,9.799996621379972
1727706198.7762296,-4.0608993485859154e-07,4.6242321036005113e-07,0.7470441102546277,-0.6647744710302081,-2.34976887651276e-08,-5.106416685510154e-08,-0.044241839517593584,0.008047264524834322,0.05196659930772634,9.799999997834872
1727706198.8046544,-4.054213875647835e-07,4.621911988376585e-07,0.7474816348184745,-0.6642824742598007,-4.195041387858012e-08,-4.9919533070893825e-08,-0.043851684460478005,0.021539686920886057,-0.00015300617601038727,9.799999748446947
1727706198.8358228,-4.0475508864284343e-07,4.619604679185669e-07,0.7479183468522597,-0.6637907399485214,-4.076202473824723e-08,-4.995911486265387e-08,-0.04384327341023443,0.02182996418657491,-0.0002606793587230344,9.79999976240921
1727706198.8762407,-4.0388410224836016e-07,4.616746125731164e-07,0.7485001117940038,-0.663134664034378,-3.9162277287121513e-08,-5.0042702823918686e-08,-0.04384308208917006,0.02183656421362456,-0.000260454270868917,9.79999977181816
1727706198.9079676,-4.0338483761846865e-07,4.6197404499964156e-07,0.7493333762692874,-0.6621929410741967,-2.5451429189411402e-08,-1.0847611403879801e-07,-0.0923318041209277,0.1078792604499134,0.044990764995293024,9.799998076348968
1727706199.161949,-4.02427115058344e-07,4.6211545235647215e-07,0.750207652969063,-0.6612022969003317,-3.720137191857667e-08,-1.0285964076176656e-07,-0.08431366980406671,0.014984834795078644,-0.0026820663060603484,9.799999695987738
1727706199.2338276,-4.0119918430044573e-07,4.622172657362895e-07,0.7513122403889656,-0.6599469050168645,-3.65185729505305e-08,-1.0042522645577605e-07,-0.0835379065644738,0.041743626158065,-0.0009694575115851887,9.799999794553367
1727706199.269454,-4.002935226446356e-07,4.6230160531851393e-07,0.7521337778734608,-0.6590104552899154,-3.5448814323831637e-08,-9.971224403146995e-08,-0.0829908708255021,0.04120955497445884,-0.0010085273872099975,9.799999801420094
1727706199.5037992,-3.993067164811505e-07,4.623398355115508e-07,0.7530480701193202,-0.6579655037227973,-4.6928167638641235e-08,-1.174253531354801e-07,-0.10017827386038412,0.12647978426579892,-0.025399973191306248,9.799999747180793
1727706199.5068417,-3.982848188669338e-07,4.6255778811616946e-07,0.7540546799721671,-0.656811646982375,-3.321011579407707e-08,-1.2389657127934238e-07,-0.1023086321155448,0.052939459335144934,-0.0012714301410624922,9.799999816388304
1727706199.5504446,-3.9693602449280666e-07,4.628817848635959e-07,0.7553976072080992,-0.655266705261229,-3.189450398712366e-08,-1.2394555756516666e-07,-0.1023553331172068,0.05132851634297963,-0.0014157548570486419,9.79999982023944
1727706199.583197,-3.959969686499755e-07,4.6320826925471445e-07,0.7563918392453869,-0.6541187854836531,-1.179932689796114e-08,-1.220157406079394e-07,-0.09901357111915265,0.004501297838037583,0.04535445801694646,9.800000142276296
1727706199.6562111,-3.9504216075283565e-07,4.6345416832679983e-07,0.7573514688837845,-0.6530074674758346,-3.023077361498339e-08,-1.1809198916154105e-07,-0.09775259292305233,0.04808946271325556,-0.0012879354792162442,9.799999824565944
1727706199.7029004,-3.937710101437587e-07,4.637862034413487e-07,0.7586436973189363,-0.6515057486453084,-2.9099970872562507e-08,-1.203559613732568e-07,-0.0997109653061936,0.051580190013518185,-0.001057103548833311,9.799999833918488
1727706199.934096,-3.9194429019392274e-07,4.6292064447093245e-07,0.7594107348689173,-0.6506115090939316,-1.301483065683681e-07,-8.112296935736991e-08,-0.0609891708309869,-0.1576279477920841,-0.31480834798642887,9.800001829190858
1727706199.937795,-3.915625824442797e-07,4.6316911204292037e-07,0.7598613033678344,-0.6500852249080639,-1.5607503524325667e-08,-4.638961063956913e-08,-0.03872111738756503,-0.03494272645895677,0.018367909487894955,9.799998676478321
1727706199.974213,-3.90952983919972e-07,4.630574475774046e-07,0.7603463728020481,-0.6495178160500306,-2.419644809879837e-08,-4.1779675151434774e-08,-0.037185612873791456,0.018067802237713804,-0.0002240034366947634,9.79999985131511
1727706200.2383304,-3.8934422477370355e-07,4.615315153704072e-07,0.7605518958337095,-0.6492771470977442,-1.1225421315961695e-07,-1.2187896625100834e-08,-0.00806453959787118,-0.13125944299013284,-0.27339718839536215,9.80000399591108
1727706200.250378,-3.8931517368356195e-07,4.6143199088711364e-07,0.7605448914019635,-0.6492853518769777,-1.866782769337444e-08,6.4347271642291296e-09,0.0017663470230394691,-0.008446926512054382,0.0007571043685331148,9.799999779369347
1727706200.281223,-3.891963978273359e-07,4.6116026982785867e-07,0.7605258433118856,-0.6493076633263934,-1.8754372274284015e-08,6.942776579979524e-09,0.001978354566248725,-0.0011224558702532807,-7.153943542622564e-06,9.799999863539943
1727706200.321838,-3.8929602092919524e-07,4.61101968696611e-07,0.7605137069902825,-0.6493218781771751,5.923084895450559e-08,4.387937677450401e-09,-0.002209129712864146,0.057900368240017215,0.22223862408823486,9.800001129691472
1727706200.35116,-3.8918238583901633e-07,4.609169658498903e-07,0.7605490098734912,-0.6492805276458613,-1.8179699261357255e-08,-4.92400978087395e-10,-0.003793616190367444,0.0030736720405645174,0.0007898010264339212,9.799999845392882
1727706200.3852696,-3.887012255708889e-07,4.6030294800046927e-07,0.7605668885281525,-0.6492595845070305,-2.964243430908785e-08,2.9645673571767805e-09,-0.00048006670892948545,-0.00963971345826213,-0.03660044372985577,9.8000014665967
1727706200.638,-3.8774668107838034e-07,4.5895333287908127e-07,0.7603210046401541,-0.6495475116591748,-1.928181410785007e-07,4.982839077876016e-08,0.04931751709462537,-0.32734534697807305,-0.5362631169878493,9.799998720544881
1727706200.644553,-3.869688953449846e-07,4.570107164986934e-07,0.7595957321667837,-0.6503955132637749,-3.3056634400959e-08,9.93339823328115e-08,0.07848372399009285,-0.06642357360898495,-0.07169718463863814,9.800002898494562
1727706200.6689703,-3.8748472897615536e-07,4.563689670598884e-07,0.7588222805282331,-0.6512977403412152,-8.489147589458367e-09,1.0158054807022596e-07,0.07931359440743736,-0.03754448977898712,-0.0010781305084834067,9.799999897178012
1727706200.7081392,-3.884241423472544e-07,4.5580744606955856e-07,0.757780937607504,-0.6525090425414296,6.308935134085858e-08,1.0244012748718931e-07,0.08148880125085936,-0.06679092157299767,0.1923093860442085,9.800001061987954
1727706200.753421,-3.8900434346131763e-07,4.5520731013127644e-07,0.7569756714070027,-0.6534430601801191,-8.426135426276263e-09,1.0485420186179878e-07,0.08230147521581158,-0.03910277569071143,-0.00039985235753159224,9.799999871764056
1727706200.7853374,-3.8503481450278033e-07,4.493411127809393e-07,0.7561856047999258,-0.6543571892269696,-6.95279111271922e-07,1.0160141080229583e-07,0.07879311333892972,-0.014700975143097036,-1.9207153297282307,9.800002307599629
1727706201.0387542,-3.832360727390937e-07,4.4608717053383155e-07,0.7554448227014233,-0.6552122708353906,6.429425428829449e-07,9.196824696540217e-08,0.07381181431159986,-0.004822083483404695,1.7316598586449408,9.800023974275778
1727706201.045777,-3.875814076746463e-07,4.4978468055080036e-07,0.7546849324797686,-0.6560873818994346,1.56719125640854e-08,6.401917286003991e-08,0.048979609509288036,0.009064628997128128,0.04378775864226054,9.79999810406321
1727706201.0766113,-3.879728430531373e-07,4.4947969401042764e-07,0.7542101772418366,-0.656633085173512,1.1430267447497723e-09,6.135074921988954e-08,0.048130548488154165,-0.020483196730415744,-7.143888629708338e-05,9.799999901152495
1727706201.3770115,-3.860759455881094e-07,4.4655163108474006e-07,0.7537395813166206,-0.6571732218801196,-6.925714559354658e-07,6.132138935158091e-08,0.04704676702785033,-0.00863877189163346,-1.921063016068322,9.799988501547654
1727706201.383335,-3.858820526067976e-07,4.454827854304329e-07,0.7532355878344654,-0.6577508260879038,9.333253292470403e-09,4.766980785052487e-08,0.03746410328354013,-0.013481022149691548,-0.001354729266242102,9.799999977076066
1727706201.4117794,-3.8602163736010877e-07,4.450444666452837e-07,0.752844523446776,-0.6581983922160929,9.01869164655176e-09,5.027860930226043e-08,0.039880911314863626,-0.01831026907013769,-0.004157230201032361,9.800000080899508
1727706201.440333,-3.86423342589257e-07,4.4489237438120833e-07,0.7524501843407952,-0.6586491631249186,1.0061450326356785e-08,5.0345058460384056e-08,0.03993315098479677,-0.01648559423223745,-0.00020511225721843063,9.799999916596093
1727706201.4818158,-3.871026310950264e-07,4.4483968151336445e-07,0.7519072388247975,-0.6592689164540683,9.355359954904696e-09,5.1926720337308004e-08,0.04132249513907658,-0.017360323528282835,4.585176795419572e-05,9.799999906514394
1727706201.5344176,-3.870303601332677e-07,4.4414635871450203e-07,0.7515274714637079,-0.6597017959919607,-7.328265609900722e-09,4.6561496649631775e-08,0.03638369871469904,-0.00035200889054349166,-0.04664284371973273,9.800002104764612
1727706201.777466,-3.8526378422729326e-07,4.415794646797472e-07,0.751180454587725,-0.6600969054957275,-6.362863194682505e-07,4.439403005556574e-08,0.03308602003032721,0.02407316065009939,-1.786317338704936,9.799989282838396
1727706201.7824583,-3.849028692766853e-07,4.407657631360664e-07,0.7509710843565992,-0.66033508952647,1.440108368716432e-08,2.573506732236963e-08,0.01971982750434437,0.0027660332413615213,-0.009066065486847363,9.800000394428691
1727706201.8096817,-3.850431616848284e-07,4.405231965104639e-07,0.7507230637264152,-0.6606170460931827,1.6843369073724526e-08,2.3588641512508698e-08,0.018416286614318655,-0.006212621193357756,-0.004171934572468834,9.800000118927116
1727706201.8405123,-3.855347487743132e-07,4.4079440736664066e-07,0.7505329775763281,-0.6608329967322061,6.978830791798361e-08,2.4624643321568907e-08,0.020745246422612888,-0.03981229294432956,0.13941008780583267,9.800000787563192
1727706201.9292939,-3.85892637542161e-07,4.408736497189093e-07,0.7503194595047631,-0.6610754183057608,1.689341975637684e-08,2.729764403212748e-08,0.021630552433119597,-0.009003003729339216,0.0002567069077819888,9.799999913742516
1727706201.974339,-3.854370955018272e-07,4.3983046772593766e-07,0.7498607557653222,-0.6615956823942533,-5.6525134420840824e-08,5.781139960609509e-08,0.05267844613104066,-0.15545389176212265,-0.2268766803316855,9.800002908835138
1727706202.2036173,-3.856317941051517e-07,4.392645894198799e-07,0.749273743757191,-0.6622604147280293,-8.444953490839773e-08,7.370492255409596e-08,0.06571124689720627,-0.15452178841864744,-0.30482766620112345,9.799998276291008
1727706202.2068262,-3.8624925746018306e-07,4.389944536965971e-07,0.7485887530075723,-0.6630345985468827,1.9161715256344504e-08,8.415945114665142e-08,0.06929632242271576,-0.02856957685755221,-0.001827511060178109,9.799999975674583
1727706202.2473898,-3.8697821826502585e-07,4.3849347472382936e-07,0.7476632677564222,-0.6640780361128099,1.82990280534179e-08,8.491376473469295e-08,0.06992581627409529,-0.026359203491159083,-0.0032800561633567903,9.800000057185784
1727706202.513525,-3.865470642240474e-07,4.370190951777522e-07,0.7469293020474356,-0.6649034649801355,-3.1501807098939484e-07,9.094727149374975e-08,0.08103817128276034,-0.1827876289724484,-0.9472172226727047,9.799994453225429
1727706202.5172637,-3.8716545855658475e-07,4.365418380397031e-07,0.746083094040229,-0.6658528491994447,2.112256613557727e-08,1.026803978052904e-07,0.08523134630530951,-0.03390645651974099,-0.004015637426784792,9.80000006205724
1727706202.5471997,-3.8825266517354745e-07,4.365943119882743e-07,0.745268446490052,-0.6667645331494194,2.20544886527719e-08,9.804923798859367e-08,0.08106440577569758,-0.02608383093046255,0.003893802367613309,9.799999751382577
1727706202.5970094,-3.8872667048364984e-07,4.3561119099385663e-07,0.7441862660106364,-0.6679721562167135,-1.431080371799055e-07,9.808648780802859e-08,0.08136036124883202,-0.03543854251339432,-0.45286510753666614,9.799997265080961
1727706202.6253073,-3.894113132944965e-07,4.3523898892651186e-07,0.7433691812424859,-0.6688813500005326,2.05011155024853e-08,9.813002232772203e-08,0.08150930559747742,-0.029196456899698842,-0.0021403501162536483,9.800000005668924
1727706202.663045,-3.8960069559690796e-07,4.3430425771028075e-07,0.7425265394335036,-0.669816645237012,1.2033498527662358e-10,1.0223302106900023e-07,0.08557705619199389,-0.042350006820634646,-0.0630583940762433,9.8000026730491
1727706202.9276927,-3.888099924820504e-07,4.318464245229422e-07,0.7413790704552967,-0.6710864876381452,-5.318129557499956e-07,1.0308638922971585e-07,0.08466899345030644,-0.015334049061003701,-1.531863816376063,9.799990828688761
1727706202.9302855,-3.8935079075645006e-07,4.3128760840637814e-07,0.7405302901675316,-0.6720229827498861,2.5417125721930938e-08,1.0045931218236829e-07,0.08421205135144338,-0.027772404667480734,-0.005163211357872407,9.800000145242368
1727706202.9568539,-3.901869779088712e-07,4.310595589169778e-07,0.7396809001633428,-0.6729577742572032,2.6177766701025298e-08,1.0041700511301105e-07,0.08420238715620866,-0.028101967024241312,-0.0009340293021726127,9.799999954161141
1727706202.9979436,-3.9128957558941973e-07,4.307423838924668e-07,0.7385465612556552,-0.6742024746744171,2.5151872909849488e-08,1.0040339561643737e-07,0.08420217640975365,-0.028109345042766437,-0.0009231209063866309,9.799999955498082
1727706203.072363,-3.9210675675081246e-07,4.3049404249951225e-07,0.7376944325733041,-0.6751347451805539,2.4405661928814254e-08,1.0039427681876698e-07,0.08420217516864154,-0.02810938932104218,-0.0009231156922436764,9.799999956845335
1727706203.1107295,-3.926250549943244e-07,4.299209219191345e-07,0.7368304106816002,-0.6760776182469328,-6.22097787328161e-08,1.0208812932078735e-07,0.08737237071062831,-0.07288374026293931,-0.24518263181725622,9.799998544957953
1727706203.3350394,-3.9341342208164085e-07,4.2959116646935866e-07,0.7359328593292742,-0.6770545225896504,2.375489414266858e-08,1.05445056822269e-07,0.08856930383023628,-0.030250504807094895,-0.0018290766687158386,9.799999989928674
1727706203.3394978,-3.9195903973348604e-07,4.2652684295730555e-07,0.7348515673694892,-0.6782279660514371,2.8087798336357996e-08,9.229785069861656e-08,0.07794490244697244,-0.019835128475714964,-0.006662526457569892,9.800000250001574
1727706203.3596976,-3.926740997514428e-07,4.262587834263146e-07,0.7340477247771451,-0.6790978852486294,2.5933348715779322e-08,9.389952492289563e-08,0.079719523508203,-0.030223932212720274,-0.012420251959052506,9.80000044865464
1727706203.6640582,-3.934978114547124e-07,4.2608831419117533e-07,0.733233745490374,-0.6799766720070778,2.8988195097704966e-08,9.436220287335307e-08,0.07987249627491301,-0.02481007641670068,-0.0008802884351706694,9.79999996310075
1727706203.6719024,-3.921133699337298e-07,4.23303261392139e-07,0.7322830485752259,-0.6810003941034398,3.266080033912988e-08,7.981719086938597e-08,0.06791581335300881,-0.015060433593066963,-0.006185195469217944,9.800000240881891
1727706203.695049,-3.924831460510053e-07,4.228019669635349e-07,0.7315775358889703,-0.6817582481952745,3.295667593620821e-08,8.093811045041992e-08,0.06916111884528499,-0.02074491642334827,-0.006827953495397259,9.800000235963633
1727706203.7232783,-3.9328466921777485e-07,4.2275740103753405e-07,0.7308696276980153,-0.6825170967149695,3.412366548691292e-08,8.105024034371829e-08,0.06918813560509296,-0.019778434381868156,-0.0006426182417948419,9.799999964376223
1727706203.7652855,-3.9413894543874755e-07,4.2246741910693416e-07,0.7299253933538989,-0.6835268247382995,2.6012751103556954e-08,8.090730582723538e-08,0.0690389753620738,-0.019207078883760595,-0.02076847087973868,9.800000874654245
1727706203.8316207,-3.9249271005757227e-07,4.198078640448668e-07,0.7292242058559065,-0.6842748406842766,-6.609834257256097e-07,8.053636660931902e-08,0.0672278905622573,-0.00035461497093691627,-1.9201696828500954,9.79998883376446
1727706204.0910892,-3.8626841563850995e-07,4.1232077271003084e-07,0.7285651382070618,-0.6849765246992087,-6.413237518143939e-07,7.355580692794365e-08,0.06267926538824029,0.0036284877023289013,-1.9200224564090491,9.800002269966546
1727706204.0944624,-3.8019680963126835e-07,4.050867983262288e-07,0.7279505669518441,-0.6856296172673552,-6.222226237506803e-07,6.710581076133382e-08,0.058364769429562736,0.007063502846785789,-1.919877771701746,9.800002230603178
1727706204.1278253,-3.723355418253807e-07,3.958183272032026e-07,0.7271964977554115,-0.6864293508089295,-5.976310295794244e-07,5.927385835959758e-08,0.05296503254828297,0.010865165656303057,-1.9196995010685363,9.800002180012768
1727706204.157772,-3.666192538030868e-07,3.891445062931568e-07,0.726677440224351,-0.6869788190830187,-5.778928851427682e-07,5.389644280562411e-08,0.049085224080477316,0.01439652050543614,-1.9140543980642937,9.800002175719305
1727706204.2456656,-3.6612175584297075e-07,3.882444482341121e-07,0.7265342105114393,-0.6871302940172517,8.605676209717452e-08,5.979888328166334e-09,0.0024480825830840575,0.08917366818677289,-0.08703352258499474,9.800003790761986
1727706204.2857902,-3.677351367300197e-07,3.89960683106759e-07,0.7265309994647986,-0.687133689187478,1.174418184573158e-07,-8.322297587859754e-10,1.4517253630724072e-05,0.0005291598280533105,4.74747678444026e-05,9.799999954939576
1727706204.5036547,-3.689124034582764e-07,3.912240370121953e-07,0.7265309807157937,-0.6871337090114689,1.1396514462628419e-07,-8.460974375603499e-10,3.1028787986215724e-07,1.1325926749160107e-05,1.2089661633448054e-05,9.799999954819723
1727706204.5063937,-3.700546696527612e-07,3.924499151602694e-07,0.7265309803150521,-0.6871337094351858,1.1058046934335678e-07,-8.217943859561173e-10,6.6321707655175056e-09,2.5781305746508676e-07,1.0634854516758741e-05,9.79999995615695
1727706204.5228593,-3.7152508561231737e-07,3.9402795972027986e-07,0.7265309803063498,-0.6871337094443852,1.0622338019080574e-07,-7.892290260940782e-10,3.9396666863174713e-11,1.7811266110838197e-08,1.064165027452835e-05,9.799999957904804
1727706204.781983,-3.724612320957083e-07,3.9529836492557714e-07,0.7270950527592583,-0.6865368047327951,1.0329810006008298e-07,-7.215812332864129e-08,-0.08147118134845656,0.3712367342825447,0.05039511501153135,9.799999902500348
1727706204.7861197,-3.7288248350979445e-07,3.9698817328910383e-07,0.7284570734194546,-0.685091448045344,1.0015069523192899e-07,-1.5656789516105148e-07,-0.15725405812149143,0.3456791156563868,0.04282528344605451,9.799999911965399
1727706204.8148236,-3.7287988421368327e-07,3.990538097303597e-07,0.7303038868025388,-0.6831224143012776,9.805910403091719e-08,-2.0027684760885616e-07,-0.18267276535312998,0.020901073770012196,-0.0016224294407268794,9.799999950054751
1727706204.8527114,-3.7269301232876965e-07,4.018418084388243e-07,0.732801600093925,-0.6804423670668094,9.410714628942357e-08,-2.0247258541635584e-07,-0.1832247721710938,0.0007867788112719397,-0.004672678211138866,9.799999967992026
1727706204.8848317,-3.7250832289273667e-07,4.038995396752194e-07,0.7346689679091156,-0.6784257568747319,9.129935714156602e-08,-2.0294315003429597e-07,-0.18322799659478536,0.0006692828648338005,-0.0046895266964164,9.799999969147407
1727706204.9201164,-3.722938528051036e-07,4.0591680131292993e-07,0.7366100845171362,-0.6763176645536874,8.76737839323415e-08,-2.1382254883223816e-07,-0.2066753780790022,0.3291545734855232,0.03638307128612573,9.799999936720196
1727706205.1729252,-3.715653553968099e-07,4.089614767801184e-07,0.7399174090886285,-0.672697723890356,8.617144808686117e-08,-2.8041406375270167e-07,-0.2528377737601196,0.01979948783869951,-0.00617241145268796,9.79999996179305
1727706205.1745539,-3.7100241365273454e-07,4.1112707527511353e-07,0.7417310538051188,-0.6706974309037133,8.088390420496086e-08,-1.8437766747821402e-07,-0.1444667390496091,-0.49310193883715553,-0.07477796936784326,9.80000005320806
1727706205.2019038,-3.7107132517080244e-07,4.1266996539158167e-07,0.7425031877407559,-0.6698425308940211,7.86197496939929e-08,-7.083133621304195e-08,-0.043790396307699465,-0.4583241183789344,-0.06460266779449916,9.800000042968211
1727706205.2445784,-3.719618434348285e-07,4.1396226839356386e-07,0.7425598263393683,-0.6697797431294391,7.597287520464939e-08,-1.1502728761757956e-09,-0.0002764590737884967,-0.010077020887846384,-0.0014177618797503577,9.79999997444552
1727706205.3005118,-3.7270526646516655e-07,4.147962431586498e-07,0.7425601743721372,-0.6697793572782831,7.37355529010489e-08,-3.7016883731458914e-10,-5.909063816563989e-06,-0.00021536724170146903,-2.0064291688059587e-05,9.799999970851553
1727706205.3299682,-3.734274777309928e-07,4.1560472908512416e-07,0.7425601818110236,-0.6697793490310576,7.154627070326762e-08,-3.435118194356515e-10,-1.2630089410461548e-07,-4.58265896199549e-06,1.0304898281298325e-05,9.799999971588797
1727706205.3601954,-3.7398632461361325e-07,4.1652299380927627e-07,0.7431099976076005,-0.6691692846024231,6.960875625310861e-08,-7.446629761265702e-08,-0.08147130388641464,0.37123668396302945,0.050365313047807704,9.799999913959693
1727706205.5747533,-3.739150466231257e-07,4.1841149642032774e-07,0.7450425215632956,-0.6670169720946321,6.672394111298694e-08,-1.8891667068414384e-07,-0.18132050697843813,0.3376073842517706,0.03980958011181984,9.799999926994856
1727706205.5862482,-3.734053069890845e-07,4.202358678595667e-07,0.7469505202118278,-0.6648796284704199,6.575678561188205e-08,-2.1703039086658598e-07,-0.19215647051523693,0.009360663013263196,-0.003706173630212914,9.79999996579574
1727706205.6324897,-3.7281741858213915e-07,4.220503664584201e-07,0.7488658870483457,-0.66272157292107,6.370422233991738e-08,-2.180246556671264e-07,-0.19238814667015885,0.0009194556566098999,-0.005144626451022298,9.799999980591132
1727706205.8715272,-3.718569977928838e-07,4.24534031908024e-07,0.7518627572607439,-0.6593196449704446,6.013750065152774e-08,-2.810006448777986e-07,-0.2604304277171542,0.3112541963234077,0.028001452337989004,9.799999942780497
1727706205.896335,-3.7063813224483465e-07,4.2677277057529434e-07,0.7548642248562495,-0.6558810883322175,5.8348990643740645e-08,-3.563061885253761e-07,-0.32621074664632554,0.3090403596225719,0.018668807497995692,9.79999995485299
1727706205.9275286,-3.6910160816797553e-07,4.2941168157818065e-07,0.7582490576456188,-0.6519650041062098,6.111340757659782e-08,-3.9524795279118926e-07,-0.348427891086738,0.03329798002293293,-0.010726061207100214,9.799999942457731
1727706205.9793699,-3.667251678341921e-07,4.3300377811382484e-07,0.7630769581778101,-0.6463076325541719,5.979708511026396e-08,-4.370792385072353e-07,-0.38549213207323946,0.05918767802208624,-0.01061437950329537,9.79999993177165
1727706206.0233004,-3.647299392760123e-07,4.3578678971677417e-07,0.7668908537045073,-0.64177754596437,5.222430467157625e-08,-4.533780403348024e-07,-0.4096084467155594,0.3103711752386053,0.004393513718767401,9.799999898584304
1727706206.0569851,-3.6246718212429397e-07,4.3882351601220337e-07,0.7711444436780472,-0.6366602288380757,5.958971689010111e-08,-5.138363803155193e-07,-0.452637094107225,0.0871848295279887,-0.011163932784518356,9.799999851710922
1727706206.2852962,-3.598954558119766e-07,4.4193723119338695e-07,0.7756789146984575,-0.6311277376980814,4.892267217286804e-08,-5.568257237718768e-07,-0.49881201133616304,0.31188177861929495,-0.014548980038724393,9.799999996180668
1727706206.300307,-3.559238329540714e-07,4.46695694400951e-07,0.7825202169873445,-0.6226251761740389,6.389656086316565e-08,-6.417269278794282e-07,-0.5624073710132772,0.08390429430472061,-0.01582223160869046,9.799999601450638
1727706206.3319616,-3.5262001626466227e-07,4.503903437645219e-07,0.7877712699136166,-0.6159678776513924,5.607832169137854e-08,-6.499730640125244e-07,-0.565774985011243,0.011004066378818976,-0.04391711869837732,9.800000024278146
1727706206.4095263,-3.492462940304159e-07,4.540431112455506e-07,0.7929718988233943,-0.6092582110042445,5.4305068848917547e-08,-6.51257054499083e-07,-0.5659775270780457,0.006608893412389116,-0.04479901128611158,9.800000031628949
1727706206.4564123,-3.4464263972745756e-07,4.5879429319071815e-07,0.7998833962135384,-0.6001554402499124,4.1034328296049504e-08,-6.631308529526007e-07,-0.5879117466502803,0.31393983104145234,-0.037255520261031315,9.799999831070766
1727706206.4816837,-3.409264058075619e-07,4.6260722808238654e-07,0.8054321049901585,-0.5926880496946026,5.751292395497882e-08,-7.213574941456012e-07,-0.6279624887384873,0.07908656943508825,-0.03315904379049803,9.79999974566501
1727706206.693539,-3.4073739670695757e-07,4.7165216565134127e-07,0.8109307922554589,-0.5851420769108945,6.898409609337284e-07,-7.210119680057829e-07,-0.614982219761127,-0.09537870102521302,1.720556361893964,9.799997851149438
1727706206.707293,-3.426730664300809e-07,4.867875722305638e-07,0.8178557402421794,-0.5754233121386049,6.62451104956695e-07,-7.056399312033586e-07,-0.5858297093507318,-0.04994900385124869,1.7294876384943842,9.799997800026048
1727706206.7375016,-3.4193816993009425e-07,4.948901564713105e-07,0.8226079214128664,-0.5686090112093207,3.573976093034255e-07,-6.622898092976507e-07,-0.5354504355431566,-0.1834894957409605,0.9183371675305306,9.799998816797157
1727706207.0038652,-3.416177479784539e-07,5.029573808753493e-07,0.8268928893089026,-0.562359448760315,4.114193579185671e-07,-6.160017648460557e-07,-0.49329786992314834,-0.12537525048968393,1.1202292281806787,9.799994779416714
1727706207.0092564,-3.407527452892607e-07,5.09678509899695e-07,0.8307296651647622,-0.5566760488963631,3.2053690352772844e-07,-5.571609126636606e-07,-0.43881932430238063,-0.17209000675344321,0.9039946996592401,9.799998195161145
1727706207.0430028,-3.3644105620637866e-07,5.128578038603654e-07,0.8353424291343194,-0.5497299574223676,-4.000879303607571e-08,-5.135180697527583e-07,-0.41111542453339067,0.04932372305238353,-0.0464764023670936,9.799999800949555
1727706207.07274,-3.3389560420918477e-07,5.160237615974779e-07,0.8386656359923352,-0.5446466294811655,3.1754844880046134e-07,-5.016609250397943e-07,-0.4009786467108309,0.022000407767677494,0.9408136423154183,9.800005647462346
1727706207.1277668,-3.307901113654821e-07,5.181813287273044e-07,0.8418935474527851,-0.5396436368169155,-1.6213114874367115e-08,-4.93857753545785e-07,-0.3953050079248157,0.06887147837265487,0.032692350519168675,9.799999854332588
1727706207.1687105,-3.2973517801784425e-07,5.254009577261092e-07,0.8457474463223101,-0.5335834115102401,4.213439419783693e-08,-4.278795051617412e-07,-0.3330447023816042,-0.09462336670738544,0.2113182107665923,9.799996467810594
1727706207.3754547,-3.2901310635809334e-07,5.301538299242734e-07,0.8482615670455562,-0.5295774861840595,2.434595738438427e-07,-3.913751083597887e-07,-0.2986634037558787,-0.19911667518319606,0.7748596113158607,9.79999382058523
1727706207.3793733,-3.279230807617838e-07,5.334414648861848e-07,0.850269821901042,-0.5263470622735325,1.0186290653501184e-07,-3.084104806014926e-07,-0.23336586090963982,-0.1839264738758473,0.4106556230156455,9.799998292992086
1727706207.422981,-3.2528126534418887e-07,5.347166682976674e-07,0.8526311429405818,-0.5225132860391641,-6.282523826733995e-08,-2.8433143151288073e-07,-0.2243167552925879,0.06849024334733313,-0.005846126529704328,9.799999958005294
1727706207.5288756,-3.226352214693451e-07,5.345086058698766e-07,0.8543793549155428,-0.5196498031306382,-7.612734852044977e-08,-2.8218887107647553e-07,-0.22324397304541344,0.06633730756625983,-0.05093708800942239,9.800001988534609
1727706207.5617874,-3.203470341624191e-07,5.348531650760681e-07,0.856114093219121,-0.5167868606990828,-5.848078526581197e-08,-2.8140588454017306e-07,-0.2231575443945333,0.06918119119785288,-0.0069184333877609526,9.800000019997649
1727706207.588084,-3.151725795006769e-07,5.300512050930918e-07,0.8576236543520168,-0.5142778115916649,-7.46942727203424e-07,-2.4094345499326913e-07,-0.19093652720010035,0.0003967006963822304,-1.939249629391716,9.800002536120784
1727706207.8218403,-3.057548485754508e-07,5.187175066309629e-07,0.8594762833082474,-0.5111756238615832,-7.174007794924192e-07,-2.1393309109868056e-07,-0.1746404930619941,-0.014707558520989303,-1.9370523995465143,9.800002471958294
1727706207.8308082,-2.9906394703497114e-07,5.10431026969375e-07,0.8607535408086717,-0.5090219464669323,-6.960042514116841e-07,-1.9546229157795025e-07,-0.16314150215398449,-0.024304651650115982,-1.935552357936448,9.800002425184793
1727706207.8899136,-2.926725891136436e-07,5.023284203239195e-07,0.8619410189270634,-0.5070085599776768,-6.752388601022967e-07,-1.7841635222507516e-07,-0.15224345935402925,-0.0325470270917315,-1.9341677550113419,9.800002379964036
1727706208.1712518,-2.8661391069969103e-07,4.952201110092879e-07,0.8632660476487652,-0.5047491763010142,-2.0393258572203988e-07,-1.3118651454241526e-07,-0.10343868714769366,-0.31658033840827565,-0.7267880520624118,9.800002844726063
1727706208.1797807,-2.847282220779362e-07,4.933285836661226e-07,0.8636980603931145,-0.5040095837113093,-1.6551792515211733e-07,-5.0962208382957654e-08,-0.03423506615675391,-0.31795710200302235,-0.6337273538861002,9.800000835942486
1727706208.2124057,-2.8432619374961295e-07,4.928538915423976e-07,0.863738571151661,-0.5039401558762345,4.281428468592529e-08,5.114808265919656e-10,-0.0009145311739485494,-0.03334289835366707,-0.02651500073743658,9.800000981899636
1727706208.2509115,-2.864424363037963e-07,4.963744731203421e-07,0.8637393690307598,-0.5039387883324883,6.732995259386725e-07,2.3571708378682167e-09,2.7163828153384947e-05,0.0007249498811291888,1.730993285264108,9.80001031665613
1727706208.3067079,-2.9146117805006735e-07,5.049065479076682e-07,0.8637384850254156,-0.5039403034940348,6.532689379553471e-07,2.4459096952920323e-09,0.00016077870517097788,0.0007662562095102466,1.7308496526045098,9.79999784745611
1727706208.339769,-2.960000091821716e-07,5.126104453572057e-07,0.8637515358651362,-0.503917934082791,5.013264304461603e-07,-4.237603272131758e-10,-0.005627652922570377,0.08320741141435031,1.3748132898999865,9.79999563730891
1727706208.5878026,-2.9806220996910646e-07,5.164655462378721e-07,0.8640354367302014,-0.5034309923654822,4.361886627591335e-07,-5.140426107809932e-08,-0.04876430504786982,0.10924514997159174,1.2233158650798475,9.800003324791879
1727706208.6047332,-2.991236655040822e-07,5.19898377625901e-07,0.8648847076106665,-0.5019705594363597,1.8423929017010176e-08,-1.1776596407826347e-07,-0.10198118426078176,0.09219414985674712,0.09134394205640058,9.799996937660215
1727706208.6344151,-2.982610824360293e-07,5.202336556102081e-07,0.8656653736679082,-0.5006230726125606,-1.1170458536186555e-08,-1.2387575508668564e-07,-0.1040382721446808,0.018681720648718866,-0.001027432481497427,9.799999989279176
1727706208.738894,-2.9564937470937107e-07,5.17549434322887e-07,0.866440061486776,-0.4992811030375939,-7.046013536918578e-07,-1.220151533396454e-07,-0.10175403750426604,-0.015083014630535234,-1.928821440414369,9.799988613412976
1727706208.7806022,-2.8782187690126563e-07,5.062029936770318e-07,0.8673985100579997,-0.49761413238454455,-6.767518938849939e-07,-1.0804427948379136e-07,-0.09285743804812185,-0.021795660717831664,-1.9278640600656434,9.800002377723414
1727706208.8108482,-2.837878617726168e-07,5.008439637650879e-07,0.868195822159016,-0.4962217391300977,-3.263611217349746e-07,-1.2163995532825747e-07,-0.1124191117084364,0.13581962173097434,-0.9815642306447313,9.80000785328818
1727706209.0125709,-2.8377449555337007e-07,5.030032560488628e-07,0.8692275072441218,-0.49441231846489897,6.690026346360806e-07,-1.6490463971863537e-07,-0.14210628838141112,-0.05076209709309677,1.733530397786346,9.80001375188574
1727706209.0264437,-2.887790838781594e-07,5.150524852846479e-07,0.8705477386876569,-0.49208397115274793,6.374876976057148e-07,-1.5346275484617579e-07,-0.1290492110814353,-0.03300823328060003,1.7207003751252803,9.799997837584877
1727706209.05662,-2.9046205165011245e-07,5.203849182261352e-07,0.8715773760670714,-0.49025797038669716,1.8202446765787018e-07,-1.733844793405977e-07,-0.1548230518340703,0.24736719851418426,0.537504509555068,9.799997422331101
1727706209.3315656,-2.9139706000086647e-07,5.251971694801761e-07,0.8729085771487592,-0.48788381397599945,6.167253403962265e-07,-2.242257937694041e-07,-0.18413574478214306,-0.03565986240484318,1.713922343782982,9.800007059880693
1727706209.3364308,-2.8991995084620854e-07,5.261883949910898e-07,0.874418360841257,-0.48517268082954557,-4.2949997856976614e-07,-2.577408092154646e-07,-0.21717044213985193,0.14821573030621238,-1.1355110877708823,9.799989597210221
1727706209.374829,-2.8552220679713174e-07,5.242665330127809e-07,0.8769319350803958,-0.48061458699855975,-1.7151690666092995e-07,-3.3328033268818575e-07,-0.2870074745371966,0.29124136764546904,-0.4365785772251578,9.800000610006716
1727706209.4024608,-2.8253450189861985e-07,5.244798260150489e-07,0.8791672774279162,-0.47651327190292436,-1.3213833613031451e-08,-3.772851254279451e-07,-0.3160668648062575,0.08131134793690067,-0.04273101591341731,9.800001135731254
1727706209.456681,-2.75246414751441e-07,5.168419218095795e-07,0.8813350639735547,-0.47249180417271547,-6.494464477801332e-07,-3.56260248584172e-07,-0.29791838282407274,-0.06643630602020228,-1.862083444960863,9.800002990632874
1727706209.5028908,-2.7050955017099966e-07,5.148342934202797e-07,0.8837004080438847,-0.46805297651305805,-2.0419456600985022e-07,-2.5979293390393596e-07,-0.20845687731299567,-0.3517315101023288,-0.6892336379730083,9.799999904951282
1727706209.7360487,-2.6820853357134994e-07,5.138847633374506e-07,0.8849224733554253,-0.4657383558932855,2.8706239560307678e-08,-1.9421555030091185e-07,-0.18225101061449545,0.3441321402403328,0.03964723828688991,9.800004612937313
1727706209.7374194,-2.6733836173886027e-07,5.159852090454184e-07,0.8864852629068241,-0.46275682452955946,1.6142188910861072e-07,-2.696511063844144e-07,-0.24199144869454586,0.2408414941466308,0.3918770675862111,9.800000744168106
1727706209.7792122,-2.6607377339392355e-07,5.202131027120587e-07,0.8890603917792126,-0.4577899297374851,1.2905668587894752e-07,-3.43002069412686e-07,-0.3001168319109838,0.18465442712386665,0.3048268358346779,9.799998914598524
1727706209.8693023,-2.639056694771429e-07,5.218213561796106e-07,0.8911427375354706,-0.45372306679013513,2.1556014034407334e-08,-3.5722802380799574e-07,-0.30513177319804874,0.02428571598243543,-0.011311757189956067,9.799999958394856
1727706209.9054747,-2.646742012605631e-07,5.291814856934601e-07,0.8930573891466259,-0.44994277379491454,2.745535802819496e-07,-3.26412764571105e-07,-0.2631374390539269,-0.2834713290212139,0.68277759137887,9.799995426825383
1727706209.9304993,-2.645495465204553e-07,5.337565913788748e-07,0.894525449709288,-0.4470170240852591,3.4639028937843686e-07,-2.483184399750428e-07,-0.19881406605144772,-0.21991202553926287,0.9183694858255311,9.800001331182315
1727706210.151974,-2.6549188887367017e-07,5.401475582982736e-07,0.895845780132539,-0.4443650956346145,5.841451431849232e-07,-1.5647660276636353e-07,-0.12816342298371913,-0.04414016964298531,1.635082933417613,9.800005639758004
1727706210.1545718,-2.653709215740479e-07,5.421376232886534e-07,0.8964874970570882,-0.4430690325671077,7.324327224198803e-10,-1.086161719596337e-07,-0.08850482090848405,-0.04387047655696657,0.045562931772971806,9.799997548416087
1727706210.1809323,-2.646693990458665e-07,5.424750935594329e-07,0.8970579076329765,-0.4419130122012492,3.2648254577398296e-08,-1.0202214334717755e-07,-0.08348797061314603,-0.03466241288000447,0.1346726159082128,9.800000840515514
1727706210.512458,-2.6379029736485296e-07,5.429131185626114e-07,0.8977251024780047,-0.44055605815888155,4.8719007061493546e-08,-8.34026485851346e-08,-0.05549963472427043,-0.35954351766463205,0.13486576818821314,9.800001128892507
1727706210.518178,-2.643946613731451e-07,5.448055280850024e-07,0.8978007749181072,-0.44040182624062707,1.495186569378554e-07,8.807986359492017e-10,0.00997689694582753,-0.2838602828465017,0.43449064480259214,9.800000545665538
1727706210.5244887,-2.6490941197436576e-07,5.452654709349192e-07,0.897582907618104,-0.4408456917691975,-2.0746596424912835e-08,4.55096269130242e-08,0.03569710455128063,-0.02687476867499907,0.006370651829882824,9.799999587513396
1727706210.565532,-2.6553801803258736e-07,5.453679577046508e-07,0.8972438806029164,-0.4415352972529506,-2.4445213472841472e-08,5.0077395242510214e-08,0.038690855322149435,-0.008038780226135828,0.0008743001925073551,9.79999995199801
1727706210.6344657,-2.6573358767597975e-07,5.448629249508828e-07,0.8969873753771069,-0.4420561597961524,-2.412351853780572e-08,5.0007444389544254e-08,0.038708313322396465,-0.0074170839768368975,-0.00018646198769731116,9.800000003487757
1727706210.6630373,-2.6640996872570506e-07,5.453466491958707e-07,0.8967005840723417,-0.4426376198697446,1.944499173716027e-07,5.71952858419754e-08,0.052250790336306974,-0.19619305228309866,0.5775125974999133,9.800003579872214
1727706210.9142506,-2.668129186576964e-07,5.449221412154632e-07,0.8963231092812388,-0.44340149274449225,-2.4434866118689053e-08,7.269074357462664e-08,0.05734483610985072,-0.015351233268172542,0.0006752922079718209,9.799999930295286
1727706210.919276,-2.611977831662054e-07,5.319100038105768e-07,0.895843412029406,-0.44436986972921627,-6.968454309164133e-07,6.64938816665982e-08,0.052094549964757195,0.007858611075263916,-1.9198925638632398,9.800002412999625
1727706210.9444652,-2.5709031217104015e-07,5.225096388429767e-07,0.8955124399062291,-0.4450364816201625,-6.761028901047177e-07,6.06720338084865e-08,0.04840093850203407,0.010351537626778718,-1.9197656737319162,9.800002369416468
1727706210.9791,-2.5343556898761896e-07,5.141308146246921e-07,0.8952208332696587,-0.4456227773348769,-4.936949197967803e-07,5.156551438169087e-08,0.037695949038808726,0.11408694232723808,-1.4558382108075894,9.800005007810968
1727706211.0877616,-2.576222313629712e-07,5.218711601190312e-07,0.8950662748544599,-0.4459331380575139,6.553684751290029e-07,2.0854731714092808e-08,0.0167877187167095,0.006030867641732857,1.7316043420369174,9.799997852333602
1727706211.122882,-2.620647080298569e-07,5.304214183296224e-07,0.8949585240621425,-0.4461493474254572,6.358438542347742e-07,1.9982939635484607e-08,0.015773051062151152,0.004799520390953463,1.7313972361955858,9.799997823153307
1727706211.339118,-2.6581512468193275e-07,5.375973742153992e-07,0.8948323030574946,-0.4464024522832063,3.6659132385711707e-07,2.542551356440816e-08,0.02596872997565418,-0.1526142470307103,1.0158670825872433,9.799993706716132
1727706211.3422809,-2.698413877811782e-07,5.448134110294384e-07,0.8945123247340305,-0.4470432874997122,1.4508625922192768e-07,5.65196685569813e-08,0.05228897628723392,-0.20194375595392827,0.44709993055030217,9.799995655606239
1727706211.3737724,-2.702048993288945e-07,5.443288407641806e-07,0.8941299451345113,-0.44780759396574144,-2.6559650725329555e-08,7.240623392404668e-08,0.057532225560927845,-0.015642180664627425,0.00029243416883816334,9.799999947441394
1727706211.6271558,-2.705304774001479e-07,5.437194372465292e-07,0.8937424854501648,-0.4485803937991416,-2.6223486510226428e-08,7.261754149692921e-08,0.05764468776820212,-0.011634007115735869,-0.0004433762001555538,9.800000004692592
1727706211.6360009,-2.7320151829932004e-07,5.476867818682639e-07,0.8932425226136484,-0.4495751280869877,1.594497568832918e-07,1.0187368185629943e-07,0.09049383581631501,-0.2612202686272404,0.5006038701602202,9.799997482137089
1727706211.6754117,-2.743755532091374e-07,5.470776779161911e-07,0.8922774700054231,-0.45148744890677356,-3.4914583748126956e-08,1.3665963173449185e-07,0.10874799774260194,-0.029146187479737705,-0.0012262012326747413,9.799999968520615
1727706211.7046616,-2.750791318012386e-07,5.461364275220315e-07,0.8915391571502891,-0.45294362923809617,-3.4190186188929855e-08,1.367571579980313e-07,0.10885517452544788,-0.02534038564902593,-0.001595071668268645,9.800000007921186
1727706211.7365,-2.7602223022305146e-07,5.456815303800575e-07,0.8908033365386424,-0.4543890575390742,-3.2386943386068025e-08,1.356973624458848e-07,0.10804245866136869,-0.02473356257378436,0.003641346362965511,9.799999777299027
1727706211.7899592,-2.753759126139013e-07,5.413624576688412e-07,0.8898251721431951,-0.45630161408871206,-7.26640840249429e-07,1.3468236652890065e-07,0.10555603562134962,0.0056059891417104294,-1.9198655229193242,9.799988663981086
1727706212.0558748,-2.713756129475739e-07,5.31403757552823e-07,0.8891344994317633,-0.4576459788088078,-7.050536561741932e-07,1.2303030185389263e-07,0.09840467238341066,0.0114741795238197,-1.9196080041111705,9.800002430335091
1727706212.0580702,-2.674278294302809e-07,5.217742603203623e-07,0.8884893035386262,-0.4588973278382684,-6.840772953650456e-07,1.12275356291288e-07,0.0916275640079666,0.016501516376727678,-1.9193733118541314,9.800002386115862
1727706212.0801861,-2.630249122163566e-07,5.109078275611576e-07,0.8877302791721066,-0.46036393368799355,-3.228795142296284e-07,9.15076977145321e-08,0.0683000896368739,0.2316112330789211,-0.9638586601111314,9.80000784641367
1727706212.1093435,-2.6217415590729464e-07,5.08307271267168e-07,0.8875632667834499,-0.46068584464509366,-1.6485262191303675e-07,1.7617414190714535e-08,0.0019129789082579227,0.3098132508047261,-0.53317499302129,9.800000789850328
1727706212.1797323,-2.6119949207170536e-07,5.067231312128565e-07,0.8878434392113133,-0.4601456589484487,-1.215268054977618e-07,-5.610415845301616e-08,-0.060549287834093794,0.2710795632405441,-0.4301781151998505,9.799999876555601
1727706212.2102056,-2.608271244127412e-07,5.072556065311174e-07,0.8883425958505456,-0.45918126311641716,4.6555714847684625e-08,-8.370548586924781e-08,-0.07380124689470263,0.01065543335699722,-0.003261118122565327,9.800000166236654
1727706212.440937,-2.6050547833250326e-07,5.084757399258344e-07,0.8890217868453982,-0.4578648954810674,4.610266723791076e-08,-8.46706182437004e-08,-0.07408877784402544,0.0001716737287933537,-0.0007499839502166856,9.799999991025174
1727706212.4439967,-2.600801481448822e-07,5.094589529072004e-07,0.8898812069177301,-0.45619232520321573,4.4699308756003337e-08,-1.560845808833984e-07,-0.15038716769188892,0.3479904610213019,0.04359617755251712,9.799999938362228
1727706212.4587052,-2.5906371484325155e-07,5.107174152920042e-07,0.8912327274616767,-0.4535462771326569,4.324928560760701e-08,-2.391382752259781e-07,-0.22135831263380334,0.32423147165848937,0.03421199131890145,9.79999994953816
1727706212.7512383,-2.5712233432588636e-07,5.1271955553269e-07,0.8933226888335718,-0.4494158137124554,4.305260886800621e-08,-2.6748625381144717e-07,-0.23245533715728592,0.0034868641154770395,-0.007171239454242672,9.799999996522871
1727706212.7536588,-2.554448304827029e-07,5.142415101378761e-07,0.8951799998304231,-0.44570479905793503,4.0085220694944074e-08,-3.2968324150078735e-07,-0.2985839414846075,0.3087654014653578,0.022664864156414957,9.799999964298479
1727706212.7736514,-2.5327680311616215e-07,5.160770130808187e-07,0.897414682755746,-0.4411880406063533,4.4850550285635224e-08,-3.9605347967145993e-07,-0.3474741423220681,0.10863236256531145,0.00391261611082393,9.799999842515486
1727706212.8135254,-2.499933063435194e-07,5.186126732401649e-07,0.9004948571507004,-0.4348666603049811,4.1143150580430394e-08,-4.070236197311185e-07,-0.35224829080528125,0.004966620149343214,-0.016995720863665263,9.8000000101637
1727706212.843704,-2.4733967342863686e-07,5.20560819050614e-07,0.9030499569057663,-0.4295355344231272,4.882126672432679e-08,-4.662487984380314e-07,-0.4120887383097078,0.22706712632783654,0.028057005390972407,9.800000207616966
1727706212.9151244,-2.443211825817144e-07,5.226773883742679e-07,0.9057400626530271,-0.42383362172550415,4.063309597818299e-08,-4.879274250934426e-07,-0.42176915704209733,0.01698631924400454,-0.022749902376755796,9.800000010200124
1727706212.9467032,-2.412317582752004e-07,5.247701504349437e-07,0.908406418458255,-0.4180882429625502,3.933324744500382e-08,-4.896549726874314e-07,-0.4223513008419883,0.004344125212925115,-0.024850917680884557,9.800000020234181
1727706213.1386857,-2.3688349057973838e-07,5.274933766001794e-07,0.9121754890413178,-0.4097998013565874,3.1843051591449996e-08,-5.521858867621963e-07,-0.48814543164621804,0.31158911721845123,-0.012087051216215654,9.800000006101474
1727706213.1543906,-2.3305320859915381e-07,5.297974833113067e-07,0.915414895692287,-0.4025115759134689,4.718976562414563e-08,-6.286912413082591e-07,-0.5530919140670836,0.3008873610978385,0.015431007836314695,9.800000294073937
1727706213.1863534,-2.2886121219095469e-07,5.324649778359867e-07,0.9188015650994048,-0.39471975371210966,4.201907011522945e-08,-6.607480538148135e-07,-0.5687648987126189,0.028146386313255757,-0.03811231853172948,9.79999994239676
1727706213.227432,-2.2304009348537075e-07,5.357867865986423e-07,0.9232385769575778,-0.38422718542160667,3.8943002060442975e-08,-6.637134960035438e-07,-0.5697446918876503,0.0069250567857489205,-0.04535592603395837,9.800000044194473
1727706213.2658238,-2.1861974759815218e-07,5.381615634305457e-07,0.9265298383656488,-0.3762212894265649,2.6502012912814914e-08,-6.754179657905565e-07,-0.5916866713913699,0.3140297799076716,-0.03830322435359508,9.799999840567917
1727706213.2969542,-2.1378488879579547e-07,5.405167680553459e-07,0.9300741544433254,-0.36737183783762617,2.5803656594550498e-08,-7.526199559049926e-07,-0.6574419904726013,0.3149715301368244,-0.05761755032271447,9.800000060408474
1727706213.5577924,-2.1030239133985732e-07,5.531699551791795e-07,0.9348417881309989,-0.3550645450670713,6.695013432360222e-07,-7.736695221813033e-07,-0.6487849452688623,-0.08203215603662464,1.7104897740574039,9.79999784046025
1727706213.588477,-2.0830455869790356e-07,5.644250252516522e-07,0.9381774748922005,-0.34615462672703406,6.494510540851867e-07,-7.625109132047512e-07,-0.6270655955010365,-0.04609565310349191,1.7175797841379437,9.79999780235096
1727706213.6206157,-2.03017039437074e-07,5.672910869397345e-07,0.9415915650335174,-0.3367570706865236,1.2254031365631502e-07,-8.198821520316647e-07,-0.6828606399158544,0.2953202459574495,0.30547831148947047,9.800000648608906
1727706213.884754,-1.9725223219833178e-07,5.698429523637617e-07,0.9448839153684734,-0.32740553825123325,-1.9435847270251967e-08,-7.846081554525771e-07,-0.6244001417932551,-0.4279048612032611,-0.16879051617354807,9.800000209793751
1727706213.9053507,-1.904760616336678e-07,5.717372668177399e-07,0.9483198081690981,-0.31731615375483413,-2.1569593699174327e-08,-6.053124440570127e-07,-0.47805365025478597,-0.44853329913023804,-0.13689196719760602,9.800000119760513
1727706213.9365861,-1.8559043430821517e-07,5.701299782288975e-07,0.9502979586777422,-0.31134191772480097,-2.297107071624113e-07,-4.921144588511699e-07,-0.3916354473305405,-0.3395498332998022,-0.6888306401712196,9.800000546646231
1727706213.9816818,-1.799636392415598e-07,5.637424267339247e-07,0.9519532295031468,-0.3062434470126324,-6.619720034402893e-07,-4.236804846460494e-07,-0.35053342326046893,-0.06280459038307265,-1.8693734933799173,9.80000234586158
1727706214.0405002,-1.7414889513722e-07,5.592035002060105e-07,0.9541343146121447,-0.29937887313447753,-1.4107712278115592e-07,-4.359358071712738e-07,-0.3792595262922316,0.211482459736376,-0.4366927055918222,9.800001024968577
1727706214.0702462,-1.702836381173887e-07,5.58387943663834e-07,0.9559510309097081,-0.293526193894728,-1.260212099039443e-07,-4.854887630140229e-07,-0.4232657156505556,0.21541144486471347,-0.41308120178016267,9.800000526090587
1727706214.2919345,-1.666147327447233e-07,5.590709311577246e-07,0.9576993764644097,-0.2877705758400964,2.0088191227266383e-08,-4.489203782685324e-07,-0.36402427111632335,-0.5147119848064785,-0.10635959808036183,9.800000122463643
1727706214.3208916,-1.6319243478204322e-07,5.603381936035165e-07,0.959250806641198,-0.28255599437610646,-1.3335909573880308e-08,-2.765773419946816e-07,-0.2179852796657955,-0.48953336840027245,-0.17253450533347836,9.799999552841497
1727706214.352983,-1.6150800651585732e-07,5.611423628911403e-07,0.9601205776643601,-0.27958625922086117,2.119932528313158e-08,-2.387577384955573e-07,-0.20484394674294154,-0.010844785025209159,-0.007808673472318733,9.800000020912227
1727706214.3846495,-1.5988956338521088e-07,5.619425476565709e-07,0.9609721293936727,-0.2766451997202357,2.065204157959017e-08,-2.3724881904813173e-07,-0.20379035282159946,-0.001675943261560798,-0.0061583260237274015,9.800000003362618
1727706214.4127421,-1.5827118569071107e-07,5.627271659875076e-07,0.9618130562034892,-0.27370722481542514,2.0023934445379863e-08,-2.3721287740718885e-07,-0.2037232104142677,0.0007706446215164066,-0.005807209442249299,9.800000002404317
1727706214.4538045,-1.566275131693653e-07,5.635833935268738e-07,0.9625226983565868,-0.27120113412007124,1.8569025119027565e-08,-1.2765287326450277e-07,-0.1072402682072119,-0.07851357934723707,-0.012314787942634933,9.800000013076847
1727706214.6499763,-1.55897744858013e-07,5.640672903352351e-07,0.9628170634973658,-0.2701542193599188,1.7434748440126918e-08,-6.595180372205454e-08,-0.03959330529670448,-0.4569274461335323,-0.06411483781494288,9.800000075100003
1727706214.680984,-1.5583505856591295e-07,5.643519315046832e-07,0.9628322255003012,-0.27010017685628074,1.731590295480034e-08,1.7041184141126538e-09,0.001131656296626352,-0.036716577422978625,-0.005544369165536642,9.800000028565059
1727706214.7373455,-1.559869770742172e-07,5.646639016857758e-07,0.9628211890578544,-0.27013951562271654,1.6833619974905238e-08,4.527596045484767e-09,0.002133078589718643,-0.00021772108831184152,-2.0748575857444014e-05,9.799999996536842
1727706214.9767065,-1.5604042201000445e-07,5.649083999429397e-07,0.9629244751614056,-0.26977111619813643,1.642114600262631e-08,-4.2397723990961144e-08,-0.052929907628113004,0.38091951533359186,0.05236656095875972,9.799999931952655
1727706214.9895506,-1.5548055376396605e-07,5.653151925023799e-07,0.9633489639852939,-0.2682513254172608,1.560897389427355e-08,-1.3542801221544117e-07,-0.13070556167190558,0.3546072081445293,0.04565109584683198,9.79999994019535
1727706215.0300088,-1.537613764170398e-07,5.661457586005971e-07,0.9642982866663905,-0.26481845542167076,1.636965474611914e-08,-2.2058587809325462e-07,-0.18983240913474914,0.032093986532394,0.0011321781993858307,9.799999911126232
1727706215.057615,-1.5222015784459914e-07,5.668125832745438e-07,0.9650621444568479,-0.2620211009365566,1.543547608428865e-08,-2.2739095882151498e-07,-0.19887264540805416,0.11623528132866941,0.010822770912148963,9.799999997797727
1727706215.1351235,-1.5058376967527426e-07,5.674931721472112e-07,0.9658502507111524,-0.25910093245848986,1.4893707779536985e-08,-2.3650747337997558e-07,-0.20197250560527655,0.0032781416042892554,-0.005350516120897711,9.800000002329076
1727706215.1648648,-1.4875083650401774e-07,5.681933956512876e-07,0.966804559118873,-0.2555170140452803,1.3108099110168602e-08,-3.0178812269695355e-07,-0.2693614977047007,0.30856881360336436,0.02641615831434791,9.799999963691999
1727706215.3829465,-1.4557121488700966e-07,5.693529392121069e-07,0.9683421925766031,-0.24962651717233625,1.2336761971475924e-08,-3.77029065813223e-07,-0.3328704123473234,0.30920266372459243,0.017550792407474678,9.799999975068438
1727706215.3886204,-1.4261823621817893e-07,5.70386873040041e-07,0.9697231616077788,-0.2442068587101281,2.9191967610708294e-08,-4.4888904241751626e-07,-0.3870499486840662,0.1473110321482323,0.0334818605134368,9.800000284121802
1727706215.418276,-1.3933541866044165e-07,5.714856295575349e-07,0.9711436178778678,-0.23849543696838277,1.659390394610879e-08,-4.6296181413084004e-07,-0.3933038683366672,0.011762967695115138,-0.01993840171059075,9.800000007989953
1727706215.4622097,-1.3489831403940153e-07,5.728670509791495e-07,0.9730164182465488,-0.23073588759079233,1.0467633002508121e-08,-4.754799199468295e-07,-0.4156053057458512,0.31047187907194324,0.003138954969475566,9.799999915537889
1727706215.4922135,-1.312218930087786e-07,5.740175609227423e-07,0.9745490551565931,-0.22417434976608047,1.9251771274202322e-08,-5.364930336150436e-07,-0.45792239586776695,0.08447439491174771,-0.012018599172136985,9.799999866667562
1727706215.5231602,-1.272407008169698e-07,5.751108568174823e-07,0.9761446609701316,-0.21712116630849143,9.43060303634665e-09,-5.805527713589716e-07,-0.5040187455061687,0.3119847480966405,-0.015871973679528733,9.800000015057638
1727706215.7783074,-1.2127847650204018e-07,5.767654872499997e-07,0.9784316917700802,-0.20657062845329943,8.690671274181447e-09,-6.574643054168772e-07,-0.5686464117793331,0.31331461076332356,-0.03212702306574471,9.800000034437508
1727706215.8080652,-1.1624951912355238e-07,5.78223922297998e-07,0.9802636055840528,-0.1976948749133482,2.7104379251796347e-08,-7.220916182294726e-07,-0.614351303359193,0.10098920829539992,-0.02289807481852586,9.799999641107949
1727706215.8453724,-1.1093281933411515e-07,5.796016032634039e-07,0.9820535125185241,-0.1886024881852862,2.0705590654456587e-08,-7.314608865051157e-07,-0.6184061621652921,0.013184762838653562,-0.05253063907052731,9.80000005228003
1727706216.1310139,-1.0616149344482338e-07,5.840886239777409e-07,0.9837545084503352,-0.17951898814133027,6.650850432014658e-07,-7.290443487414722e-07,-0.6110955473022136,-0.10757446039414388,1.7215651753736931,9.800010679051411
1727706216.1395326,-1.0126785516987125e-07,5.981282836201393e-07,0.9858130519275923,-0.16784703348238839,6.38733115606456e-07,-7.120612289085939e-07,-0.5816469332665475,-0.061872511484811134,1.7305384626977776,9.799997771773159
1727706216.1702278,-9.75062870679725e-08,6.081012836972406e-07,0.987206821534647,-0.15944494822690458,5.853144632580171e-07,-6.992664975791458e-07,-0.5616374949198298,-0.01017174040842076,1.6441632576021425,9.79999717474446
1727706216.2058136,-9.34087609749303e-08,6.15951989915456e-07,0.9884990549116108,-0.15122704268239834,2.695387864812543e-07,-6.966708682863397e-07,-0.5572831272316421,0.19441653306581805,0.8438464372181732,9.799992961893215
1727706216.2681577,-8.669772720330746e-08,6.202231071389207e-07,0.9901681195658194,-0.13988243276086076,1.23387996763034e-08,-7.352025842587142e-07,-0.5800383913223729,0.1403957305790994,0.13897668873615407,9.799997478704917
1727706216.3046427,-8.186848071283685e-08,6.259116460489034e-07,0.9913256257431117,-0.13142870213400476,4.897565292395763e-08,-7.24534287584775e-07,-0.5640938011773146,0.08879938069932365,0.2624348179798574,9.79999299560944
1727706216.5255194,-7.672675446045352e-08,6.289223261539889e-07,0.9923940158408802,-0.12310206059530177,5.487814260270804e-07,-7.150446910362566e-07,-0.5556936220731401,0.06040371373372218,1.6465333925523984,9.800009708047789
1727706216.5408044,-7.069364778476147e-08,6.392053226743699e-07,0.9936725672566583,-0.11231575615712819,2.840073411305919e-07,-7.028005543577291e-07,-0.5363272779953896,0.11410460395358789,0.9810583908047404,9.799993838960834
1727706216.5687447,-6.53220217852216e-08,6.391164024178299e-07,0.9945387174457829,-0.1043682878123634,-7.382997282388581e-08,-6.960048155858501e-07,-0.5317940292573651,0.16106889793215134,0.0025039051850688893,9.799999846937894
1727706216.5997925,-6.004952686673545e-08,6.394812663980604e-07,0.9953326419611226,-0.09650353281760837,1.1299965815574761e-07,-6.855103132505132e-07,-0.5212597073933641,0.06399415051448941,0.5039268301233959,9.800003046612371
1727706216.630006,-5.4832184223218966e-08,6.390409618371934e-07,0.996049634112665,-0.08879823412441168,-7.573879893903099e-08,-6.718123459780837e-07,-0.5144000038792524,0.156934691541152,-0.0038132287352243793,9.799999988193951
1727706216.6711152,-4.8165099749895947e-08,6.402042608250268e-07,0.9968964599179267,-0.07872387314336998,-6.721740944815101e-08,-6.54585833031512e-07,-0.5006642220401711,0.15450756691429313,0.026237793926689273,9.799998681441656
1727706216.8950412,-4.335675966598022e-08,6.424704857641484e-07,0.9974553509366686,-0.07129391900711496,5.267998746978761e-07,-6.460217215569335e-07,-0.4929271612616045,0.10004021510947352,1.6625237217223188,9.800009734193365
1727706216.9242327,-3.894107395606671e-08,6.496189079532538e-07,0.9979427310060204,-0.06411166533340151,3.2513525888559435e-07,-6.292662434742314e-07,-0.46881317140826034,-0.006759380983999694,1.1343816119191878,9.799994740416643
1727706216.9904907,-3.319968382304018e-08,6.538989332349894e-07,0.9984541095789294,-0.055582290925429045,7.79047294196047e-09,-5.476115427368054e-07,-0.40462810476269573,0.009749796290623518,0.3016851315337565,9.799995394282872
1727706217.2434995,-2.922728268008534e-08,6.556521052499445e-07,0.9987657561366337,-0.04966854506009888,5.017547951592249e-07,-5.229205611568771e-07,-0.3904519566201228,0.10364565843414704,1.6838041109617696,9.800009863245682
1727706217.251121,-2.5546346467782197e-08,6.579636888468035e-07,0.9990144842166208,-0.044385361606789075,3.151005413075982e-08,-4.582483507841578e-07,-0.33331039703714255,-0.08353722018440517,0.388453008126767,9.799997294602731
1727706217.2916074,-2.1043159798306324e-08,6.559211557717704e-07,0.9992804840436876,-0.03792774985393199,-1.2418687754169224e-07,-4.2940477518356753e-07,-0.3221463782324282,0.15619998101081123,-0.01386959468939671,9.800000026110466
1727706217.3182938,-1.7722382158883728e-08,6.542278657747453e-07,0.9994520617597018,-0.033099490084480765,-1.2076061853714186e-07,-4.2784513148342084e-07,-0.3220804500133333,0.1584793149089391,-0.013886888568058389,9.800000040513893
1727706217.39399,-1.4405103231421424e-08,6.527451025117943e-07,0.9996017901802421,-0.028218098235516853,-1.1698567314667873e-07,-4.3178590213665573e-07,-0.32599732735113796,0.16382247676735193,-0.012109307478936671,9.799999963502044
1727706217.4228358,-1.1109020842804496e-08,6.521909975130054e-07,0.9997250457483109,-0.02344851601087039,1.0003261727867689e-07,-4.1545124915254085e-07,-0.3020988650461791,-0.17651715279404606,0.5355514280351993,9.80000351931134
1727706217.647536,-7.244436151051652e-09,6.505812571875219e-07,0.9998382349288835,-0.017986216218856155,-1.5200568268603258e-07,-3.457207617017365e-07,-0.24523733586774085,-0.34581255621274465,-0.18004335788006437,9.799999402700859
1727706217.6568983,-5.027974888690658e-09,6.49640352071959e-07,0.9998897779454385,-0.01484695119544327,-1.0739358788020584e-07,-2.6808021091117e-07,-0.2041552356126259,0.06506749132775114,0.0031425929699878735,9.799999401939663
1727706217.6892679,-3.0148874142046876e-09,6.480295709689693e-07,0.9999303649758733,-0.011801067697317591,-1.0928361546618408e-07,-2.6380141068628796e-07,-0.20287255760876577,0.10077221550856232,-0.005699343787967958,9.800000026497573
1727706217.72587,-3.5580810894159086e-10,6.459381930974749e-07,0.999969568293753,-0.0078014412763124374,-1.0567474680257891e-07,-2.555375479243551e-07,-0.19145755393955932,-0.05710463037830057,-0.02855894805726935,9.800000029732777
1727706217.759395,1.48461518503302e-09,6.444161133632842e-07,0.999987563945295,-0.004987178996096464,-1.0208549412450869e-07,-2.4146043797295746e-07,-0.1871638655659362,0.09096094753899005,-0.005193823651733302,9.800000026880898
1727706217.7890234,3.2554669658077267e-09,6.429318000532595e-07,0.999997310288973,-0.002319356463807487,-9.922143166947394e-08,-2.2233960334678737e-07,-0.1715428001217807,0.040622367568926676,-0.010699252091385987,9.800000047621682
1727706218.0327477,5.435592581170136e-09,6.406538744464408e-07,0.9999995474529637,0.0009513639983104172,-1.672762209715317e-07,-2.0043845518453475e-07,-0.14294340490937119,-0.2968742022478867,-0.25501666631825853,9.799998889453274
1727706218.068393,6.718572501487767e-09,6.392106800853568e-07,0.9999956273281391,0.002957249430332709,-9.197844531003643e-08,-1.6774735311805044e-07,-0.1326265444873522,0.058390572304828615,-0.004101573171635631,9.800000049594676
1727706218.0927324,7.902658986319698e-09,6.309578368482634e-07,0.9999879755534459,0.004903952296080816,-7.763791810194063e-07,-1.598447355738067e-07,-0.12711364985661,0.02615939412107509,-1.9317977834552413,9.800002592587045
1727706218.357037,8.955527622108135e-09,6.195470852663241e-07,0.99997733297175,0.006733018811952485,-7.532087997181678e-07,-1.4649474748008488e-07,-0.11939299810645962,0.01687005433673406,-1.9309366847116423,9.800002543435209
1727706218.3599389,1.0429790990580257e-08,6.308149062963989e-07,0.9999595527324451,0.008994047961310592,5.549573577106968e-07,-1.3637399258455408e-07,-0.10938426551557714,0.016738824335967975,1.7221556854598814,9.799997715631159
1727706218.3796878,1.1446575656156802e-08,6.347651660017328e-07,0.9999439069770197,0.010591642890985409,-3.25668871742266e-08,-1.3193241035802441e-07,-0.10615256025489846,0.05049559089193622,0.1361174716231259,9.799993787331832
1727706218.407804,1.2398472369037744e-08,6.335832388500399e-07,0.9999257856241993,0.012182907839494717,-8.036305034823246e-08,-1.3156755399532864e-07,-0.10608399559207676,0.05313807619299849,-0.0011426316827613874,9.79999999976273
1727706218.4803314,1.3663441606660369e-08,6.320057589652722e-07,0.9998976872016223,0.014304374451434565,-7.735850271182057e-08,-1.3134624657408667e-07,-0.10608252091999229,0.053189715182597824,-0.0015210879339940333,9.800000016562738
1727706218.5075696,1.4560321559684795e-08,6.309159293098388e-07,0.9998764915405305,0.015716286590709005,-7.383557683854553e-08,-1.0802628958193591e-07,-0.08597662153815443,-0.0160196534821575,-0.005822053668303802,9.799999870391035
1727706218.7478178,1.5293706050122245e-08,6.298056036381965e-07,0.999855768005218,0.016983615230541205,-7.292943411779612e-08,-1.0280049728270505e-07,-0.08432374600793083,0.04099512119345021,-0.001141955766280975,9.800000015329172
1727706218.7520924,1.5844326696203363e-08,6.284442171986703e-07,0.9998418793064832,0.01778247408221778,-6.915601975188823e-08,-3.731284439550553e-08,-0.033422930284100885,0.0014474090240147411,-0.00012940809824713573,9.79999991904269
1727706218.769278,1.6057330103004608e-08,6.274146384470698e-07,0.9998329432276665,0.018278009637478942,-6.78770200040608e-08,-3.607901882862583e-08,-0.03299553418127522,0.0161896294433491,-0.00018796106299656147,9.800000013252353
1727706219.0774043,1.627028534855824e-08,6.264147980267581e-07,0.9998237766991119,0.018772734130413915,-6.586578998705741e-08,-3.6143660847154066e-08,-0.032986310722355416,0.016507757101192524,-0.0001461046404716837,9.800000012951696
1727706219.0812247,1.6752764100628635e-08,6.254362593694205e-07,0.9998000608275903,0.019995958810587633,-4.834392647339915e-08,-1.1152486418928311e-07,-0.09568479083460318,0.1603898974246709,0.05817236391116473,9.79999986622155
1727706219.1083236,1.789716009767771e-08,6.241812377746539e-07,0.9997590143029128,0.021952524221110936,-6.166767096235438e-08,-1.1990281402246175e-07,-0.09777421711111262,0.04890034835812247,-0.0013024477121185154,9.80000001259448
1727706219.1454597,1.8758642309468293e-08,6.23260666044618e-07,0.9997257447794249,0.02341869391822371,-5.98602808965426e-08,-1.1977703008505379e-07,-0.09776927419882936,0.04907085264377597,-0.0012939358209321226,9.800000012902117
1727706219.1673977,1.961907150971042e-08,6.223654466283479e-07,0.999690325317524,0.024884803920370402,-5.81009152670252e-08,-1.1967041189353825e-07,-0.09776916752769031,0.0490745310340891,-0.0012934440789074938,9.800000012548203
1727706219.2345555,2.0757607343862273e-08,6.212097189635215e-07,0.9996404644368585,0.026813091207011586,-5.58476120661063e-08,-1.1616811880249712e-07,-0.09480078727889381,0.03885094788018473,-0.002504515737675081,9.80000001657676
1727706219.4991646,2.850972810622148e-08,6.137993150474549e-07,0.9991880894155711,0.0402884843309268,-4.081932430228601e-08,3.7646403342355694e-08,0.02591035927137337,-0.01295043113309172,-6.80309774800715e-05,9.800000008220522
1727706219.5116644,2.1585108070321005e-08,6.203713718361864e-07,0.9996014175555485,0.028231295056247663,-5.419097650979339e-08,-1.1532218358100154e-07,-0.09455674149639465,0.047267812289847035,-0.0012382735713426234,9.800000011793633
1727706219.5136113,2.207997231949797e-08,6.092556127782508e-07,0.9995620468754826,0.029592472788254776,-7.327065032041016e-07,-1.0710009457617682e-07,-0.08892483896645922,0.016344335784414993,-1.9282075035279198,9.800002497552583
1727706219.5303125,2.8160544073982475e-08,6.132168236626157e-07,0.9992021612071023,0.03993796487902734,-3.8528233268153304e-08,3.3109265818977116e-08,0.01833917122143955,0.09306787346788709,0.017557555126086654,9.800000017664173
1727706219.5387414,2.2620124455873026e-08,5.949494508882184e-07,0.9995106434473404,0.03128056321629247,-7.037128540515809e-07,-9.533068249490905e-08,-0.08181083700822321,0.007991029841901384,-1.927464897255216,9.800002435847494
1727706219.5698662,2.2944330559876234e-08,5.845934925699627e-07,0.9994731521376632,0.03245640392374144,-6.827190864345749e-07,-8.724943088677196e-08,-0.07676571744973702,0.0025334344238163637,-1.9269374345621515,9.80000239121413
1727706219.5729713,2.790582844085661e-08,6.126431761711301e-07,0.9992115897500602,0.03970137162342435,-3.852191777258688e-08,2.4135158764407485e-08,0.015480829657253364,-0.005529029295201668,0.0003240522202622196,9.80000000597157
1727706219.6472802,2.38782339810114e-08,5.941018282992627e-07,0.9994368344936136,0.03355612994717233,6.289420813589501e-07,-8.311836140938712e-08,-0.07169508314172207,0.0023082414496921424,1.7256060453108717,9.799997822094486
1727706219.6779702,2.4781799912677738e-08,6.033268471919195e-07,0.9994018033715528,0.034583744986962484,6.1023334397323e-07,-7.894344245877383e-08,-0.06701512680213263,0.006056030339718271,1.7258500602038187,9.799997793606714
1727706219.8156686,2.7351047588896192e-08,6.109901928759688e-07,0.9992448959682451,0.03885405874599057,-4.2334146299539736e-08,7.59100900995119e-08,0.0589378103750573,-0.08386364640951649,-0.02900743386945672,9.800000960501412
1727706219.832526,2.668570654287715e-08,6.104957365203941e-07,0.9992796333530738,0.03795015632870563,-3.367970409579169e-08,8.033661387249052e-08,0.06046765912300868,-0.031026537311441192,-0.0006840908913469078,9.800000010751315
1727706219.8642926,2.6017919784329255e-08,6.100225082440615e-07,0.9993136600562188,0.03704333711575031,-3.2654235669263087e-08,8.018423255129528e-08,0.060500675190772,-0.029886876654145755,-0.0004535468794349871,9.800000007226833
1727706219.9177175,2.5889678206756162e-08,6.138907696608748e-07,0.9993550397294252,0.03590967233241166,3.2398378453788634e-07,-8.00876991440484e-08,-0.07302653799628207,0.17391627944011717,1.0217196691219033,9.7999934722439
1727706219.9270923,2.66842184759192e-08,6.149715128624884e-07,0.999303628601296,0.03731297179138354,-3.2519332926944366e-08,-1.1731183342974087e-07,-0.09765758959129558,0.07664964129447183,0.033379086217888834,9.79999862539348
1727706219.9324043,2.5128221767865297e-08,6.098833299715236e-07,0.9993598607156151,0.035775253878815416,-3.062133388834795e-08,8.529840908774632e-08,0.06489547876729541,-0.035573358654739956,0.0035113532528890917,9.799999804617343
1727706219.940783,2.753438775150215e-08,6.140815366414007e-07,0.9992476100619674,0.03878419504216374,-4.7660377033003695e-08,-1.1925322977551578e-07,-0.09807758577063229,0.04690650327021989,-0.017163560644376002,9.800000721472701
1727706219.9666467,2.429982050032326e-08,6.059650560157453e-07,0.999394010314068,0.034808219546485386,-7.250806111035474e-07,8.527577113514023e-08,0.06357748345195256,-0.015296599129064179,-1.9210058989219885,9.799988658635666
1727706219.9948883,2.3273329121459682e-08,5.953310020278062e-07,0.999425357714655,0.033896229238350284,-7.035354056420371e-07,7.833551891164816e-08,0.05948566973210049,-0.01055719990238436,-1.9208522635143577,9.800002429058729
1727706220.2105389,2.2683458791433267e-08,6.011947751808925e-07,0.9994629625232814,0.032768682363245316,6.15532542959894e-07,7.055955753125218e-08,0.05468387589234973,-0.00613242601040107,1.73126415077155,9.799997793924234
1727706220.2279859,2.2277291566956347e-08,6.066098938374901e-07,0.99949307231077,0.03183706020363136,9.20181373510065e-08,8.539798435720325e-08,0.07035805285118812,-0.13981672126870442,0.3067214835721327,9.799993970928742
1727706220.2335851,2.8679121003702014e-08,6.132203019943076e-07,0.9991696222836552,0.04074390635617636,-4.027339721650016e-08,-1.1909786280151237e-07,-0.09806167761691956,0.04742736300903178,-0.00130924290144085,9.800000009388055
1727706220.234959,2.9317830828820432e-08,6.138541365712506e-07,0.999143051924235,0.041390358673825844,1.6193849301319094e-07,-3.598190611049368e-08,-0.02153976559776343,-0.2554512790576702,0.5202315051811821,9.800001680870203
1727706220.2600613,2.1529415225911685e-08,6.063496089617023e-07,0.9995273404341016,0.030742409215342104,-2.449878420470779e-08,9.45097036766924e-08,0.07332888166976301,-0.03777104978324315,-0.00011448555939898731,9.799999966653457
1727706220.2611008,2.9324954010269823e-08,6.15220310918818e-07,0.9991513170334592,0.04119035894386319,-1.510886077566209e-08,3.131286065529031e-08,0.023707735355160672,-0.08885962936809662,0.06772661370742869,9.799996854729747
1727706220.30124,2.886132064531457e-08,6.144055488211713e-07,0.9991723564558124,0.040676800441529604,-4.206086697368822e-08,3.781681171967013e-08,0.025897411994324847,-0.013396999086652399,-0.00010482961037457428,9.800000007364156
1727706220.5160098,2.0646580065846592e-08,6.024383898840871e-07,0.9995623915673526,0.029580827638710228,-1.7502525617350252e-07,1.0150793458325094e-07,0.08150335309711385,-0.09244593410279398,-0.44256647988317144,9.800008656588963
1727706220.5323417,1.9528356661862316e-08,6.020137071601046e-07,0.9996100561123091,0.0279237482939389,-1.5913284749218912e-08,1.0551560396851897e-07,0.0830260210853184,-0.038764670507737964,-0.0010944305118720688,9.800000012312378
1727706220.564409,1.869120947340016e-08,6.018000844483955e-07,0.9996440600999515,0.026678701364979185,-1.5379522748489292e-08,1.0533907297090112e-07,0.08303503560661002,-0.03845207852362173,-0.000876337787147431,9.8000000042936
1727706220.5971427,1.7846671539759846e-08,6.012659321614594e-07,0.9996766927251048,0.025426561345059773,-2.248422474919395e-08,1.0595396670337744e-07,0.08382530690142549,-0.041051412562354644,-0.023802129816199294,9.80000102216433
1727706220.6382713,1.6745630137331957e-08,6.015906708835347e-07,0.9997184758123248,0.023726970289514704,1.0358661381403822e-07,1.0820937383183556e-07,0.08836970521233396,-0.10083471203702296,0.3154701803310371,9.800001929671845
1727706220.6746335,1.5860282339473654e-08,6.014841502850312e-07,0.9997495551135112,0.02237916553346697,-1.4215764171706119e-08,1.1342911333168707e-07,0.09005718086376638,-0.043158555652261954,-0.0003190306464573466,9.79999996410898
1727706220.911145,1.4916228428281093e-08,5.996039888929196e-07,0.999780048703629,0.02097270163353332,-5.307285819531449e-08,1.1983508063369178e-07,0.09631794977101214,-0.06259753478934764,-0.1201896615400913,9.800005252976742
1727706220.9297454,1.3626593588703065e-08,5.986820209756184e-07,0.9998192527191005,0.01901215116340793,-9.079861629495823e-09,1.22599231955848e-07,0.09821986607152074,-0.04470753175420986,-0.0023085944810911654,9.800000049166625
1727706220.9593806,1.2668913620867945e-08,5.98567894183403e-07,0.9998461808330872,0.01753894732107042,-8.453190229055352e-09,1.2245796054541691e-07,0.09823119534761435,-0.04431200875730113,-0.0012424857927414265,9.800000003471038
1727706221.0267484,1.1799419365795198e-08,5.991079144774833e-07,0.999865619647127,0.016393372054208155,5.2381905284358594e-08,8.270210745413809e-08,0.05942514405160279,0.13673370509596286,0.193377617958306,9.799999567825003
1727706221.0586846,1.1239853128471429e-08,5.990191677356692e-07,0.9998788868690778,0.015563148559803064,-9.570209366433073e-09,6.886947336984246e-08,0.05486998852626341,-0.02148073803560074,0.0006347463557613742,9.79999997882891
1727706221.1029403,1.079532468242453e-08,5.983922097366686e-07,0.9998860931027719,0.015093071897944621,-8.9022514428971e-09,2.6286343772949614e-08,0.020390829549117313,-0.0019462211174617005,0.0004466045813162659,9.80000002481545
1727706221.2902977,1.0552944880069757e-08,5.945882638974945e-07,0.9998877040969796,0.014985966612711288,-2.602951417037586e-07,3.211354908618703e-09,-0.009256697139235836,0.2706761293981681,-0.6736524657100166,9.800005391519488
1727706221.301679,1.066465729227017e-08,5.943626616332753e-07,0.999884093947035,0.01522493584104101,-1.4101368217697523e-09,-1.9563456714876294e-08,-0.0167285727500934,0.013029736384738191,-0.001187931602448515,9.800000087678804
1727706221.3437154,1.0864052467481785e-08,5.943460569467423e-07,0.9998788978728385,0.015562441590062814,-6.662880054779084e-10,-2.005895370958752e-08,-0.01689206050908148,0.00734782426324975,-2.789555352623301e-05,9.80000000014335
1727706221.6051912,1.096584748362497e-08,5.907223952089832e-07,0.9998733532345916,0.015914694186958345,-1.578195755078781e-07,-3.1101915563031805e-08,-0.031273836305462814,0.1348461210965256,-0.43421340891530696,9.80000856605592
1727706221.626826,1.1256382216583639e-08,5.908644785355942e-07,0.9998656008148843,0.016394520631628162,6.503898839790862e-09,-3.837196048257886e-08,-0.03207836782818731,0.013883730205375241,0.00042435789817693494,9.799999977380164
1727706221.6667247,1.164729531931126e-08,5.909825563100447e-07,0.9998548713823799,0.01703631922027604,6.0776571164738724e-09,-3.8413696356085906e-08,-0.032096007467234976,0.013269474080665788,-0.00013607995971273387,9.799999998878103
1727706221.6980565,1.1940340175561821e-08,5.910675854333594e-07,0.9998465535152019,0.017517688872192905,5.893416567776712e-09,-3.840611574297402e-08,-0.03209611159439939,0.01326584736090908,-0.00013680816300286065,9.799999998938388
1727706221.7382927,1.2233216794146027e-08,5.911497806169251e-07,0.9998380038941266,0.01799905466013413,5.715156783602291e-09,-3.839853224914949e-08,-0.032096113837838794,0.013265769328777226,-0.00013681878181049466,9.799999998963205
1727706221.768904,1.2522720385428448e-08,5.909612243038989e-07,0.9998291215446276,0.018485878690219615,5.139988192308279e-09,-3.884956341510551e-08,-0.032503220495137854,0.013696015894082883,-0.002684809225405431,9.800000115478925
1727706222.0359566,1.2838381714917782e-08,5.868309055092081e-07,0.9998143422944874,0.019268651792410274,-2.5852557462713447e-07,-5.28965660718809e-08,-0.05482418581165924,0.2676273763891658,-0.7147462647770357,9.80000716277787
1727706222.0464718,1.3374218610289642e-08,5.867364434473029e-07,0.9997953362962828,0.020230806208798136,1.1364493441644552e-08,-7.810842892160691e-08,-0.06885104675219758,0.11094063952607108,0.00235390106498913,9.800000077573568
1727706222.076853,1.4019180587090453e-08,5.869369991940922e-07,0.9997732436414142,0.021294630740650522,1.416413317646237e-08,-8.508939543181624e-08,-0.07118548139283579,0.02937568858503257,-0.00044913021730056405,9.799999998081335
1727706222.1498337,1.4868354664488915e-08,5.862330381963792e-07,0.9997412748648633,0.022746061884063196,-1.7911089666656203e-07,-8.783373254809953e-08,-0.0766654358540453,0.10360490326434976,-0.524613751579032,9.799996818786719
1727706222.1797395,1.557903901098924e-08,5.862923833370213e-07,0.999713802211391,0.023923078140149434,1.4862005861279875e-08,-9.394269646804028e-08,-0.07870609218589411,0.031580055163796715,-0.0021075835701221102,9.800000064387865
1727706222.2099602,1.6300611594025e-08,5.849561372909168e-07,0.9996821583691022,0.02521075639784004,1.2646250501963805e-08,-1.0304270840384472e-07,-0.08672149370159402,0.03852645823852099,-0.015070213845078024,9.800000668183277
1727706222.4181054,1.7256309391512646e-08,5.834156127640022e-07,0.9996447299007928,0.026653592276284777,-1.1301044362715531e-07,-6.913879351729743e-08,-0.049999014409839726,-0.1855319153667724,-0.39692489243957,9.800002687108565
1727706222.4345772,1.7680471379549533e-08,5.83607859329456e-07,0.9996265262087779,0.027327789874598052,2.0263378495641765e-08,-5.238358994193584e-08,-0.04436265590760877,0.01160922498078766,-0.001940390763675058,9.80000004482698
1727706222.465705,1.8088038173898566e-08,5.837057165785505e-07,0.9996067572951818,0.028041589995415506,1.55251428051966e-08,-5.79368304666191e-08,-0.049880717398367656,0.03458477387701277,-0.011447362052951169,9.800000597892756
1727706222.764839,1.8475963093588522e-08,5.816874745619157e-07,0.9995856639283756,0.028783684068063753,-4.410060987050193e-07,-5.761410260749129e-08,-0.04794459250474103,-0.015492173783718503,-1.2823185768034164,9.799992399089668
1727706222.7726188,1.8974190031022816e-08,5.807483511497491e-07,0.9995603093372014,0.029651104488377378,2.5634450343475127e-08,-5.015960106621192e-08,-0.042934800760991924,0.0134660853340898,-0.002331785517482452,9.800000082234437
1727706222.8033283,1.936301766673343e-08,5.811246043840701e-07,0.9995410181703657,0.030294438344529828,2.5550056183452998e-08,-5.0098371696006575e-08,-0.04290503141548149,0.014510538551459383,-0.00025736866065425174,9.799999995371586
1727706222.8344128,1.9750249535151927e-08,5.814276586547273e-07,0.9995215000660216,0.030931713587056597,1.2394254645036643e-08,-4.95017752041186e-08,-0.04170582597288404,-0.002263825340712943,-0.03688912182764375,9.799999791917964
1727706222.9039335,2.02501050368103e-08,5.818896299903919e-07,0.9994956172162042,0.031757064808637825,2.3941970832530884e-08,-4.8175386714380444e-08,-0.04124633864847655,0.013855917981487364,-0.00025724338764783537,9.799999996084017
1727706222.946244,2.057227525502158e-08,5.807431709120744e-07,0.9994759388751195,0.03237047434561391,2.0995344478862563e-08,-4.76176768066624e-08,-0.0408725550646432,0.013165677842339739,-0.014656672118032964,9.800000643169653
1727706223.1552293,2.091871405333184e-08,5.803975389741296e-07,0.9994561094821284,0.03297704077856067,-1.1790157334486662e-07,-4.685571335304261e-08,-0.03964801095603558,-0.0037083144000378387,-0.39996714571255965,9.799997632607372
1727706223.1719136,2.139029273479548e-08,5.807939587098175e-07,0.9994299348530074,0.03376100293793555,2.602106141303327e-08,-4.557889358606731e-08,-0.039177255531985505,0.012639737278688291,-0.00037780911072234877,9.800000002107746
1727706223.1978729,2.174542011439805e-08,5.811664338229274e-07,0.9994099236147976,0.03434828350771579,2.5299591249186674e-08,-4.5599808265403265e-08,-0.03917446265334921,0.012737899603126247,-0.0002068811271104893,9.799999995169358
1727706223.2338874,2.2100567883817376e-08,5.815273010317867e-07,0.9993895674653812,0.03493554695463846,2.454420467373277e-08,-4.5628285744902127e-08,-0.03917440255004636,0.012740013565245883,-0.00020612139013927543,9.799999995291989
1727706223.3203642,2.2455736702593178e-08,5.818768462837962e-07,0.9993688662380378,0.03552279822535542,2.380999591213852e-08,-4.5655801418050876e-08,-0.039174401257200925,0.012740059071261496,-0.0002061064490645821,9.799999995408022
1727706223.3655248,2.28536740005482e-08,5.80794509060389e-07,0.9993426161154613,0.03625376691004378,2.0561136574438837e-08,-4.1071273934961944e-08,-0.035288192397687615,0.008104840110264555,-0.015424812196387066,9.80000066377213
1727706223.5716708,2.3071692771630237e-08,5.783979857209974e-07,0.9993246103863636,0.03674674238361103,-5.278680964965655e-07,-3.673333742635035e-08,-0.028226473058980607,-0.08741457301272029,-1.5466538916909518,9.79999087176736
1727706223.5730803,2.3277022630497634e-08,5.782386031982654e-07,0.9993119853014475,0.03708848921896224,2.8970680790233392e-08,-2.53849334509903e-08,-0.022151105393239584,0.0018269000592193647,-0.00659772416706582,9.800000259442106
1727706223.6124,2.352222173878584e-08,5.785309081723481e-07,0.9992967786898109,0.037495974448353175,2.9429310544537713e-08,-2.2215332627927746e-08,-0.019567978982755092,0.003835311721672323,-0.0032741601879789314,9.800000127565761
1727706223.8874724,2.3566649443170244e-08,5.755081514411863e-07,0.9992858268365008,0.037786720992418366,-6.63822721538706e-07,-2.1176172252675135e-08,-0.019144731656137608,-0.0006102702499628056,-1.9230047553655234,9.799988534861017
1727706223.8954446,2.3687519164211335e-08,5.7520495068816e-07,0.999277573914507,0.03800434542529607,3.426477449044646e-08,-1.560450525675763e-08,-0.013966335201256801,-0.0002797579154655093,-0.008695700388636608,9.800000358763448
1727706223.9317288,2.3880621026872705e-08,5.759253243882467e-07,0.9992652836358681,0.03832613885842695,3.57468467444327e-08,-1.819126547062253e-08,-0.016313228456758137,0.004934681952242463,4.606368175590397e-05,9.799999992567779
1727706223.960386,2.405022962921672e-08,5.768307841737567e-07,0.9992567000223694,0.03854928611622982,1.1176080104655733e-07,-1.6200380922107405e-08,-0.012012801728476078,-0.05581764860787117,0.20539094814190392,9.800001270222396
1727706223.998235,2.4158389787551387e-08,5.773876821365099e-07,0.9992505797995885,0.03870760609817975,3.30004802698231e-08,-1.1369793535821069e-08,-0.010389987888371748,0.00157815225596937,0.0004067653545303882,9.79999996717743
1727706224.0531368,2.398124023579611e-08,5.709729107897735e-07,0.9992446501210742,0.03886038090504751,-6.546482088352467e-07,-1.0213028543751539e-08,-0.010021900601677684,-0.001119675795166983,-1.9224298979717016,9.800002327576557
1727706224.3046095,2.3566634607668753e-08,5.582118780232682e-07,0.9992371626202029,0.0390524370355278,-6.287681123255821e-07,-9.200969894736702e-09,-0.009368139791169038,-0.0018900575240358701,-1.9221723875535814,9.800002273534592
1727706224.309791,2.3260706550458685e-08,5.48973504322407e-07,0.9992318477631198,0.0391881922981826,-6.100296100499624e-07,-8.504879823374331e-09,-0.008904346087282279,-0.002399908066818363,-1.9219799554062502,9.800002234064767
1727706224.3393674,2.2959346073619867e-08,5.400106427980316e-07,0.999226779287539,0.03931721702206187,-5.918465951660945e-07,-7.859100433835383e-09,-0.008462677081767667,-0.002856173979992944,-1.921788128403494,9.800002195780852
1727706224.3798463,2.2797600952420676e-08,5.345276972036099e-07,0.9992230758310683,0.03941122589330742,9.708837182986256e-08,-9.015729841702082e-10,-0.0005980801563919655,-0.021820883994241407,-0.0642875957142572,9.800002736943865
1727706224.456755,2.2857637344135866e-08,5.362649100105452e-07,0.9992230315047252,0.03941234971704283,1.1586861502877985e-07,6.905852158164439e-10,-1.2793341523521863e-05,-0.00046635355175614265,-0.00022796967613794155,9.79999998484753
1727706224.4876838,2.316553145350695e-08,5.441767096154341e-07,0.9992230596082528,0.0394116372005206,7.307088959710045e-07,1.2846775191796278e-10,9.821875769106954e-05,0.0006754716117564465,1.7309413735110428,9.79999796895587
1727706224.7023246,2.3724301735170694e-08,5.584172804157488e-07,0.999223231530382,0.039407278130671575,7.018427721865979e-07,3.455319345422649e-10,0.0002878482017374622,0.0007216131040103337,1.7307395490045563,9.79999792514337
1727706224.7057412,2.39514436793219e-08,5.644989524836183e-07,0.9992243472673967,0.03937897697662751,1.0870952510397517e-07,3.648579636194565e-09,0.0029474978595458966,-0.008080887066414123,0.13570489232294686,9.799993834918679
1727706224.7300143,2.395015491632599e-08,5.65404623110641e-07,0.9992261982769874,0.039331980328967786,5.717364529177016e-08,4.297053918269433e-09,0.0031578336557466745,-0.0005832113306771848,0.0003689007516472578,9.799999971476778
1727706225.0279002,2.394553879073015e-08,5.662440023424137e-07,0.9992280625763688,0.03928458933926743,5.534052841989458e-08,4.293591538652925e-09,0.003162319691893934,-0.0004222075546276727,1.0630476973292929e-05,9.79999998890712
1727706225.0360143,2.407586071493033e-08,5.71820228832888e-07,0.9992355871580427,0.03909272766889116,4.926685947785728e-08,1.5111092024219426e-08,0.012775601675875554,-0.009574693379860005,0.013092400712659475,9.799999355825006
1727706225.0571616,2.3979220589912612e-08,5.724539478748458e-07,0.9992427777105135,0.038908497697146494,4.228080566147221e-08,1.456486199453111e-08,0.011856933049935226,0.0013495096112645908,-0.0010876120466453525,9.800000059455302
1727706225.0901246,2.389006185733318e-08,5.730869502357652e-07,0.9992496364664638,0.03873195091020326,4.156442968959846e-08,1.4299900244902795e-08,0.011769353885321998,-0.0017873254667376485,-5.693009038750462e-07,9.799999991880993
1727706225.1325276,2.3770817887547333e-08,5.739025296679012e-07,0.9992587244482494,0.03849677406910357,3.9929634027380165e-08,1.4281816808911845e-08,0.011767446485923962,-0.0018556623907854163,-6.253338148937632e-06,9.7999999920607
1727706225.177764,2.3680736825179743e-08,5.744931922444595e-07,0.9992655040067728,0.03832039276625365,3.874499772159516e-08,1.427295854857601e-08,0.011767435300431305,-0.0018560633762260159,-6.299331787906209e-06,9.79999999229941
1727706225.4081428,2.3590118905854693e-08,5.750664164236085e-07,0.9992722524310507,0.038144010290518615,3.759460144473074e-08,1.4264538435783291e-08,0.011767435060496056,-0.00185607216792481,-6.289715538445576e-06,9.799999992532163
1727706225.4174695,2.2941084655096162e-08,5.621563503268812e-07,0.9992805951153041,0.037924823344181346,-6.36519421572619e-07,1.342383025204227e-08,0.010499274263254046,0.0014987230234011798,-1.9210319753624148,9.800002288756788
1727706225.4455657,2.24815413368901e-08,5.52809316411033e-07,0.9992862175482577,0.03777638703992031,-6.175533700937634e-07,1.213162560363375e-08,0.009610450620516596,0.0019317351891204179,-1.9208869121138137,9.800002248882716
1727706225.4763572,2.230014775575121e-08,5.498911309054246e-07,0.9992882917722525,0.037721478319261315,6.651218513484433e-08,2.1830422728866597e-09,0.0006236793024942868,0.022708962793170254,-0.057154475255568896,9.800002688788947
1727706225.5677783,2.234009546021476e-08,5.51173895606796e-07,0.9992883359693839,0.03772030746475452,8.582104209320048e-08,4.1891044174741165e-10,1.3320827194535284e-05,0.00048551779515181666,-8.81257320991918e-05,9.799999990219257
1727706225.6085453,2.2395792324593955e-08,5.528480502815393e-07,0.9992883369286424,0.037720282051992626,8.249756541167311e-08,3.663271892239441e-10,7.900827539308687e-08,2.90967511707483e-06,1.1215147620293263e-05,9.799999983572075
1727706225.812038,2.2436160416202478e-08,5.540602614291849e-07,0.9992883369342436,0.03772028190359317,8.004654698776372e-08,3.553541049794826e-10,1.6890391662084764e-09,9.127005186871808e-08,1.089739144014557e-05,9.799999984033901
1727706225.8150058,2.247532926243169e-08,5.552364719240965e-07,0.9992883369343624,0.037720281900416985,7.766942133074155e-08,3.449238893322765e-10,3.640773766271158e-11,3.093378065851607e-08,1.091133247856659e-05,9.79999998450266
1727706225.8599508,2.252574932355755e-08,5.56750597680575e-07,0.9992883369343647,0.03772028190034166,7.460982063212479e-08,3.3142899362977545e-10,5.120115744713884e-13,2.950339593542818e-08,1.0940052639495356e-05,9.799999985124112
1727706226.1488516,2.25622592663628e-08,5.578469104814189e-07,0.9992883369343641,0.03772028190033727,7.239338065946397e-08,3.211918744627375e-10,3.0056513739431013e-13,2.939402862324497e-08,1.0961002865896397e-05,9.799999985560772
