timestamp,orientation_x,orientation_y,orientation_z,orientation_w,angular_velocity_x,angular_velocity_y,angular_velocity_z,linear_acceleration_x,linear_acceleration_y,linear_acceleration_z
1727706311.663668,6.199611043877837e-07,-1.3861552081931444e-09,-1.4274793709301292e-06,0.999999999998789,-5.216368411240963e-08,5.40019191981248e-10,2.1597239045711624e-14,2.7014259576940854e-08,1.2138004421207596e-05,9.799958241865005
1727706311.6703286,6.191941993131987e-07,-1.378211218132476e-09,-1.427479370819107e-06,0.9999999999987894,-5.0614210481017795e-08,5.242799802898231e-10,1.82697660643402e-14,2.6864323255757957e-08,1.2123381719765665e-05,9.799959482114218
1727706311.6968691,6.184500800846921e-07,-1.3705012762798426e-09,-1.4274793704305289e-06,0.9999999999987899,-4.910961327935147e-08,5.08965124841718e-10,1.3080458286392884e-14,2.672415084987572e-08,1.2109143190350058e-05,9.799960685561352
1727706311.7410293,6.17492190565994e-07,-1.3605770523788058e-09,-1.4274793699864397e-06,0.9999999999987904,-4.717490750431454e-08,4.88795828668346e-10,1.596156835047879e-14,2.6529279930979112e-08,1.2090876817530436e-05,9.799962234693073
1727706311.8116336,6.167986327401553e-07,-1.3533945251553704e-09,-1.4274793697088839e-06,0.9999999999987907,-4.577328006940702e-08,4.740822366803494e-10,1.5136552432262276e-14,2.6393837105423056e-08,1.2077644273242054e-05,9.799963356368956
1727706311.8465526,6.161256798386751e-07,-1.3464247351188717e-09,-1.4274793695978616e-06,0.9999999999987913,-4.4413722873760715e-08,4.598464908715999e-10,2.059791919692628e-14,2.625209803606058e-08,1.2064804891628157e-05,9.799964444707534
1727706312.076586,6.152593927617528e-07,-1.3374589390979917e-09,-1.4274793691537724e-06,0.9999999999987919,-4.266381349740218e-08,4.4132383404016744e-10,2.0187691924848417e-14,2.6083035907380472e-08,1.204827636443423e-05,9.799965845719113
1727706312.0773447,6.14632151934446e-07,-1.3309657806778479e-09,-1.4274793688207055e-06,0.9999999999987922,-4.139674137483301e-08,4.283550949555793e-10,1.9916240769057392e-14,2.5956028099112493e-08,1.203630066086079e-05,9.799966860140213
1727706312.1051261,6.140235359049942e-07,-1.3246661430630175e-09,-1.4274793685986609e-06,0.9999999999987925,-4.016726707137484e-08,4.157089836791261e-10,1.4154778362780221e-14,2.584494751543536e-08,1.2024665309734807e-05,9.799967844451297
1727706312.4339993,6.132400791909353e-07,-1.3165519695774888e-09,-1.4274793684321274e-06,0.9999999999987931,-3.8584223424838624e-08,3.995493614318591e-10,1.4912154295628505e-14,2.5686477684105e-08,1.2009713753406933e-05,9.799969111493859
1727706312.4353638,6.126728151680118e-07,-1.3106789093420946e-09,-1.4274793679880382e-06,0.9999999999987934,-3.7438064266970685e-08,3.876711901342178e-10,1.2250718770555797e-14,2.5576788652330086e-08,1.199888070234387e-05,9.7999700289195
1727706312.460116,6.121224024658752e-07,-1.304976288301206e-09,-1.4274793680990605e-06,0.9999999999987939,-3.63253939906534e-08,3.764502615284443e-10,9.805126349504728e-15,2.547060483387308e-08,1.1988364674342493e-05,9.799970919101069
1727706312.4886181,6.115883460302759e-07,-1.2994433113008435e-09,-1.4274793677659936e-06,0.9999999999987941,-3.5247004130732997e-08,3.6521251541107315e-10,9.512285375616149e-15,2.5367704470669743e-08,1.1978205333899172e-05,9.799971782806757
1727706312.5296686,6.109008724619671e-07,-1.2923222748654597e-09,-1.427479367543949e-06,0.9999999999987945,-3.3856823156433264e-08,3.50513385479481e-10,1.633717000010668e-14,2.5221497422875992e-08,1.1965056901065568e-05,9.799972894692957
1727706312.5883641,6.104031080970994e-07,-1.287166909806847e-09,-1.427479367155371e-06,0.9999999999987947,-3.285120946747777e-08,3.4031569360025393e-10,1.0870600826909468e-14,2.5126189378606575e-08,1.1955562996707561e-05,9.799973699738157
1727706312.8363154,6.099201210323276e-07,-1.2821665541867024e-09,-1.4274793669888375e-06,0.999999999998795,-3.1875779886180804e-08,3.2991956488788814e-10,1.415600012327912e-14,2.5028594179692013e-08,1.1946338721760576e-05,9.799974480893528
1727706312.8398626,6.092983776079758e-07,-1.2757310786630974e-09,-1.427479366822304e-06,0.9999999999987954,-3.062037891439017e-08,3.1692158066259544e-10,1.0417701254730159e-14,2.490909950319459e-08,1.1934488242412682e-05,9.799975486419669
1727706312.870259,6.088482015655423e-07,-1.2710710376072882e-09,-1.4274793666002594e-06,0.9999999999987956,-2.971082966071143e-08,3.0760354914043893e-10,7.865217748094353e-15,2.4824315462129677e-08,1.1925888467866818e-05,9.7999762145114
1727706312.902392,6.084113930384487e-07,-1.2665490143766232e-09,-1.4274793665447483e-06,0.9999999999987961,-2.8828219032443134e-08,2.9857449120646947e-10,7.178222663780796e-15,2.4736198134941753e-08,1.1917542634996137e-05,9.799976920966147
1727706313.0034416,6.078490984301971e-07,-1.2607279041281985e-09,-1.4274793662116814e-06,0.9999999999987964,-2.7692005849192602e-08,2.8653400082636985e-10,1.452610432569629e-14,2.4616666760226457e-08,1.1906815440097557e-05,9.799977830371546
1727706313.0298104,6.074419704361026e-07,-1.2565091750644932e-09,-1.4274793662671925e-06,0.9999999999987967,-2.686968133642758e-08,2.784397453156907e-10,7.439191075474223e-15,2.454499744144461e-08,1.1899050845944045e-05,9.799978488829849
1727706313.2492945,6.070469371029542e-07,-1.2524153681621428e-09,-1.4274793659341256e-06,0.9999999999987967,-2.6071252640629917e-08,2.7009955217233137e-10,9.989296655759312e-15,2.4464429905640078e-08,1.1891509829542592e-05,9.799979127728191
1727706313.2503119,6.066636374856871e-07,-1.2484450219924282e-09,-1.4274793658786145e-06,0.9999999999987972,-2.529686810623322e-08,2.619250596638496e-10,1.1234313115478728e-14,2.438619788516681e-08,1.1884189594414106e-05,9.799979747657366
1727706313.268392,6.061702301860525e-07,-1.2433321350449972e-09,-1.4274793656010587e-06,0.9999999999987974,-2.429913762159202e-08,2.5172011676364526e-10,8.442798266411503e-15,2.4291039584006246e-08,1.1874754973822152e-05,9.799980545693893
1727706313.5511827,6.058129851373378e-07,-1.239634518062952e-09,-1.4274793654345252e-06,0.9999999999987976,-2.3577333390485554e-08,2.441794949396545e-10,4.570117010838338e-15,2.4224499985216198e-08,1.1867950896488012e-05,9.799981123504118
1727706313.554101,6.054708314883418e-07,-1.46896282831645e-09,-0.0008226902513648882,0.9999996615901345,-2.270045497657011e-08,-8.141617382544929e-08,-0.08147115781463912,0.3712367566498777,0.05051559277561149,9.799981620684934
1727706313.5959735,6.050434031459683e-07,-2.9057121440721786e-09,-0.0036512384032024725,0.999993334206662,-1.8237952519901516e-08,-1.9734554161339109e-07,-0.16851328284491796,0.1581893718290459,0.026381253901402717,9.799982429497591
1727706313.6252224,6.047273174919999e-07,-4.4666650406364705e-09,-0.006235656684791091,0.999980558103678,-2.0632894946142905e-08,-2.0966582272935387e-07,-0.17274628908828987,0.003963013252757191,-0.0036668412902402057,9.79998293079851
1727706313.6542306,6.04413654807742e-07,-6.044242966275654e-09,-0.008827990051550105,0.9999610325364106,-2.0040929049168398e-08,-2.0980112786549387e-07,-0.1728367865984876,0.0006653566846332182,-0.004160529429941302,9.799983440341059
1727706313.705396,6.040067838611858e-07,-8.206905218189534e-09,-0.012541913335894661,0.9999213471116165,-1.8851687844391328e-08,-2.4056266886150236e-07,-0.20171160176834652,0.08863285768236272,0.006743311351500562,9.7999840562355
1727706313.9492517,6.037049939940697e-07,-1.0056405548233348e-08,-0.015598898965372476,0.9998783297735298,-1.8332339717139195e-08,-2.473510734155572e-07,-0.20406975259180607,0.002704469002344137,-0.005554060444373784,9.799984566802728
1727706313.9506114,6.033834987276955e-07,-1.2104371964008604e-08,-0.019337302315879157,0.9998130168880479,-1.9002352099828703e-08,-3.144320882908918e-07,-0.2713512677222939,0.30847005141708317,0.026375672696954656,9.79998498583836
1727706313.9671588,6.03047872650591e-07,-1.475765483585081e-08,-0.02406425525473377,0.999710413879275,-1.8450092684775302e-08,-3.9403968293673407e-07,-0.3371308706786933,0.30917294253959415,0.01711242317746332,9.799985442739766
1727706314.0119252,6.027325097946527e-07,-1.8995197320599528e-08,-0.031146124714597323,0.9995148417681945,-1.361020148606618e-08,-4.318895414533111e-07,-0.3569416890885988,0.012915452485607439,-0.01588638787639039,9.799986043471252
1727706314.0944777,6.024211940870857e-07,-2.224408013042544e-08,-0.03650290043337068,0.9993335470500266,-1.33825702656308e-08,-4.3269754542129523e-07,-0.3573910012588477,0.0031586334803072676,-0.01777908303914525,9.799986472300914
1727706314.123199,6.020769585913228e-07,-2.548512200265485e-08,-0.04196950618142137,0.9991188920996963,-1.7257640336421223e-08,-4.4460933969367037e-07,-0.37934123956245647,0.3098937701693832,0.010082268651526873,9.79998678434133
1727706314.3482022,6.016290379130929e-07,-3.045739630683737e-08,-0.05059765038904651,0.9987191185587392,7.132950459618757e-09,-5.455012586276955e-07,-0.45791386523223243,0.18291835698492276,0.04207158129202006,9.799987776729212
1727706314.350638,6.011457954226443e-07,-3.479145206461679e-08,-0.05811290036668476,0.9983100173846846,-1.6215544444358862e-08,-6.188927594622989e-07,-0.5236813816115584,0.3121789988613903,-0.020384492598223093,9.799987771050366
1727706314.3675008,6.008968268619727e-07,-3.963975192981475e-08,-0.06619569871145525,0.9978066593642976,-4.719626167660324e-09,-6.552283133473278e-07,-0.5427776001774052,0.03234363780557733,-0.033805247579762394,9.799988065146632
1727706314.5417433,6.174807708117775e-07,-8.424334075701157e-08,-0.1326474153825622,0.9911632878552037,-6.468548091454008e-08,-2.403461494309073e-07,-0.19143462407064119,0.027618661369038563,-0.024023026792111365,9.799992642636749
1727706314.5719757,6.163916255846754e-07,-8.592075633784333e-08,-0.13549103611600632,0.9907785722005817,-5.636254415428262e-08,-2.395194569954532e-07,-0.19128605613433,0.032863925164952325,-0.005111852419041647,9.799992064359676
1727706314.604761,6.135370190919345e-07,-8.72595296792337e-08,-0.13811935722864183,0.9904155911325118,-5.7596656083868735e-08,-2.186734143626338e-07,-0.1751671013684895,0.01564821896436989,-0.023618210562990665,9.799993094768041
1727706314.713905,6.003068414853594e-07,-4.621317283252153e-08,-0.07704386913315264,0.9970277038420903,-5.793361194676114e-09,-6.576679070357792e-07,-0.5439711439995404,0.006471469871856934,-0.04132273894619225,9.79998862751054
1727706314.7155113,6.094154518225449e-07,-5.189131108581435e-08,-0.08495302473737232,0.9963849575277606,6.295596408952302e-07,-6.440776196851806e-07,-0.521599375240877,-0.08713679258186682,1.746063752304491,9.799986653632512
1727706314.73102,6.18205711913598e-07,-5.7511714518938084e-08,-0.09252789635498232,0.9957100925448814,6.107244573731579e-07,-6.283382537180689e-07,-0.49974463334813746,-0.05827478645556994,1.7517083950260017,9.799986947332805
1727706314.7623549,6.236391869443006e-07,-6.273359946745182e-08,-0.09962697657712566,0.9950248567436433,3.02062822220925e-07,-5.903350474176434e-07,-0.4569096956734435,-0.1960719646673193,0.924767578278237,9.79998826050471
1727706314.8036623,6.265588478893975e-07,-6.850116414581757e-08,-0.10755171801537089,0.9941994910235796,1.5491927494579222e-07,-4.781323918954659e-07,-0.36253207788256536,-0.27564877856614634,0.5480918468657986,9.799988699891003
1727706314.8292325,6.187031683838992e-07,-8.96404124211403e-08,-0.14065795900507966,0.990058250088415,5.672544693321199e-07,-2.1195052895378594e-07,-0.16694296103401812,-0.025958465918071747,1.7161412346175349,9.799990251491845
1727706314.838378,6.231756686961319e-07,-9.22048544145308e-08,-0.14333931163131047,0.9896736036394349,2.7735783215635922e-08,-1.483587742484822e-07,-0.11108511560406423,-0.14101123156307396,0.24962208324875437,9.79999010750807
1727706314.870986,6.27100948277258e-07,-7.192963516900868e-08,-0.1125367272578271,0.9936475657987086,1.1613037566609924e-07,-4.2184381645233904e-07,-0.32881622367450447,0.010956818691226018,0.49386328079741426,9.799992476398321
1727706314.8799298,6.220560359243074e-07,-9.308043191568699e-08,-0.14492800723979682,0.9894422028178835,-7.012414550831409e-08,-1.3435379013055707e-07,-0.10654820572977472,0.020891520895541835,-0.001302549909762058,9.799993001889609
1727706314.9010384,6.25855662605131e-07,-7.497987206848882e-08,-0.11741401814275138,0.9930830520873752,-6.947903507910314e-08,-4.1726411688015074e-07,-0.32714665396821563,0.060675738133816264,-0.013316476325220246,9.79999052328661
1727706315.1456523,6.230811585994669e-07,-9.419211155756723e-08,-0.14621329106459868,0.9892530887066573,1.3270354773491593e-07,-9.69483653140186e-08,-0.06633372615315125,-0.2690314353886602,0.5236886893038654,9.799991796949728
1727706315.1506696,6.234680147972764e-07,-7.859489132615149e-08,-0.12286013327599138,0.9924239959064929,-1.0525055708067473e-07,-3.043548690146651e-07,-0.22145832740654883,-0.4455388282425557,-0.17772456317715213,9.79999118189494
1727706315.163495,6.228864962480442e-07,-9.473038848988053e-08,-0.14693371922795245,0.9891463401102205,-6.52686605688121e-08,-3.8314134817329756e-08,-0.028087758314030924,-0.0846645133020037,0.007299218361385694,9.79999347283026
1727706315.1697693,6.221121143380503e-07,-8.04447425279218e-08,-0.12585543757940415,0.9920485919708284,-6.66131271060504e-08,-2.522139224633045e-07,-0.19880819965389013,0.018069368161355535,-0.009157057811400858,9.799991281061956
1727706315.1916182,6.218032803752208e-07,-9.47996622254245e-08,-0.1473171803865449,0.9890893025215481,-7.046062426268708e-08,-3.064640015647031e-08,-0.025578392230495038,0.004368786100910112,-0.0003114211996820879,9.79999369911929
1727706315.1979978,6.209093811197797e-07,-8.219933891233179e-08,-0.12880663550024474,0.9916697286146807,-6.427423791474302e-08,-2.502571870809416e-07,-0.19830802406950254,0.035939684397726004,-0.005475914935874219,9.799991484614722
1727706315.2224205,6.204612283409801e-07,-9.481168013329249e-08,-0.14767183347273305,0.989036414697865,-7.510993683475811e-08,-2.7357998110449614e-08,-0.02278877198159872,-0.0026365306158696654,-0.021290483705209178,9.799994795859327
1727706315.2907639,6.191115034561266e-07,-9.486411121625532e-08,-0.14811846973018195,0.9889696248744937,-6.511344991873365e-08,-2.6670268324471382e-08,-0.02255942160986811,0.005500717579335259,-7.66365933813812e-05,9.799994128830493
1727706315.321855,6.186735275780503e-07,-9.491373030362423e-08,-0.1482663692285942,0.9889474625860458,-6.235756183256716e-08,-9.266884097929637e-09,-0.0084721675381574,-0.00892838343539488,0.003534808526148748,9.799994076874537
1727706315.536368,6.109125460025849e-07,-9.379284663193697e-08,-0.14838668521745713,0.9889294169200313,-7.487307200867588e-07,-7.452188804170936e-09,-0.007973204916289235,-0.0014322173882698882,-1.9222797931910152,9.799996985082295
1727706315.552091,6.000224045138535e-07,-9.219313981034153e-08,-0.14850100243600484,0.9889122571164406,-7.264286385961478e-07,-6.819892274134679e-09,-0.00757529309532883,-0.001888304687144465,-1.9220901979638136,9.7999971031567
1727706315.5932033,5.860061602707182e-07,-9.01273127865907e-08,-0.14864457635349226,0.9888906865373639,-6.977194937930853e-07,-6.050123279964719e-09,-0.00707372908482865,-0.0024237602002322254,-1.9218381385903214,9.799997254493697
1727706315.6821425,5.795117330079853e-07,-8.920745107888652e-08,-0.14897087049528546,0.9888415847563922,-2.2486425629934986e-07,-3.1490621188590035e-08,-0.039425641681667456,0.278037421751145,-0.6222758073841236,9.799999110195758
1727706315.7072737,5.768946507677784e-07,-8.930440270953061e-08,-0.15016142404193927,0.9886614924883825,-1.4882796022898048e-07,-1.0298692850043655e-07,-0.09948040429060433,0.26050811896830783,-0.4317486512036465,9.799996207698063
1727706315.7505105,5.736664355165385e-07,-9.023586950306662e-08,-0.15296322756486874,0.9882318811962103,-1.3408453379968587e-07,-1.8288013233554494e-07,-0.16763652705335985,0.24223643095893352,-0.414238984674782,9.799995916376627
1727706315.9306612,5.733423887232967e-07,-9.177095118050409e-08,-0.1559662180430143,0.9877623898635853,2.6927837826124024e-08,-2.467362686514209e-07,-0.22579926801817435,0.32287173738237107,0.033666906022457706,9.799995421838558
1727706315.9362195,5.733704501706461e-07,-9.392178663597198e-08,-0.15979033595677983,0.9871509755526162,2.6982928193094383e-08,-3.0548535447193933e-07,-0.2649708631250564,0.05232361995731332,-0.006363962991405373,9.799995755817195
1727706316.006904,5.734184357950359e-07,-9.706259687413987e-08,-0.16504431536401248,0.9862861521717143,2.7216660638980806e-08,-3.0980074687640645e-07,-0.26635938786785596,0.0017100735435388555,-0.00988146051195386,9.799995782457042
1727706316.2582126,5.733981823350674e-07,-9.946623983579199e-08,-0.16930784501518553,0.9855632164483286,2.41194380849115e-08,-3.4682832359364965e-07,-0.3102198060671076,0.30892101310843073,0.02114357063167615,9.799995871058634
1727706316.2628858,5.732554889795915e-07,-1.0236776481869938e-07,-0.17453983396869632,0.9846501136738068,2.332906664691666e-08,-4.240649340042273e-07,-0.37599708116023234,0.3096954813527408,0.010661041033458787,9.799996005159622
1727706316.2902353,5.731479264607748e-07,-1.0584741428941186e-07,-0.18053993754613035,0.9835676544856992,3.243114889970184e-08,-4.793271624072373e-07,-0.41283602398607316,0.06206401676497769,-0.00358277178811308,9.799995867909939
1727706316.3309839,5.728034204624771e-07,-1.1071893445050321e-07,-0.18869951034131122,0.9820348745317595,2.703272927579738e-08,-4.855944809035274e-07,-0.4154774049271217,0.004804610397110271,-0.023925694075049186,9.799996315198149
1727706316.40033,5.724968919054825e-07,-1.1437921158356549e-07,-0.1948167542293866,0.9808396567590372,2.6191364630565084e-08,-4.860384886670555e-07,-0.4155373116426174,0.003503908546115149,-0.02415334748106611,9.799996426739947
1727706316.4273095,5.721341366463301e-07,-1.1818685810940075e-07,-0.20138718351861828,0.9795117162719887,2.762085391407619e-08,-5.283587343171545e-07,-0.45391381213662274,0.06889341396273904,-0.016639318089894103,9.799996447800453
1727706316.6483977,5.714673750339753e-07,-1.235610764511625e-07,-0.21063843176213304,0.9775640393674716,1.850946043560538e-08,-5.71827520610847e-07,-0.5002862239460018,0.31190970011311797,-0.014778048310506779,9.799996660371496
1727706316.6691487,5.707528441772162e-07,-1.2809315859271263e-07,-0.21861012901697768,0.9758122829165647,1.7976743712178946e-08,-6.493963743393199e-07,-0.5660477558580916,0.3128640693445054,-0.031223511213289427,9.799996779343797
1727706316.6984339,5.702578298695452e-07,-1.3320339907565597e-07,-0.22717329760536292,0.9738543488914357,3.078509408584416e-08,-6.901965076617927e-07,-0.5890856877996622,0.03883265523267981,-0.038542530504089616,9.799996757576217
1727706316.8048003,5.691913229426404e-07,-1.4009363416187218e-07,-0.23865507919503126,0.9711043986997843,2.7697545049409342e-08,-6.939921952505636e-07,-0.5905257997188862,0.0076378604938484645,-0.048694647339206185,9.79999701982495
1727706316.8339753,5.683193780332934e-07,-1.4525728714852233e-07,-0.24724794026075725,0.9689522465201621,2.6833489457921483e-08,-6.945006924829666e-07,-0.5905584583885857,0.006928740181006679,-0.048814541132291285,9.799997110589727
1727706316.86256,5.673590286550599e-07,-1.5057240328225318e-07,-0.2563231628079844,0.9665911422146214,3.0013626612484455e-08,-7.427865304715609e-07,-0.634612681294074,0.09509981414063452,-0.03803284858886553,9.799997039253066
1727706317.1562936,-5.693973227345629e-07,1.5697204184160447e-07,0.26552085039144135,-0.9641051177164537,6.714653277993625e-07,-7.481710272599014e-07,-0.6304904645752458,-0.10729387708421712,1.715737849995205,9.800007906503742
1727706317.166819,-5.77843038446827e-07,1.6709053964388572e-07,0.2773984499598474,-0.9607549635362349,2.4158658920292585e-07,-7.426135224437627e-07,-0.6194655285676911,0.17868782469436767,0.634560167843197,9.7999893163737
1727706317.1982865,-5.790516471294505e-07,1.7345165652568525e-07,0.2866246162248778,-0.9580429684380425,1.56029093659921e-07,-7.867459269105416e-07,-0.6539248487622761,0.2513757473729914,0.41423913330647033,9.799996148209479
1727706317.4811318,-5.78071617461589e-07,1.79568024636729e-07,0.29610144065728927,-0.955156498611778,-2.4321545538183865e-08,-8.033014099437843e-07,-0.6383924104641483,-0.43720867615196507,-0.17327337435673043,9.79999620127844
1727706317.487174,-5.754540307748073e-07,1.8628808944167311e-07,0.3065284600609061,-0.9518614936913476,-2.3596439620318424e-08,-6.231110268571066e-07,-0.49174903804172265,-0.4571148755526974,-0.1332802360653102,9.799997763153925
1727706317.5154173,-5.732978576716152e-07,1.900031660905993e-07,0.31251728644941357,-0.9499120725993171,-1.349886550522588e-07,-4.907108013738373e-07,-0.38627882748456976,-0.40385987647720856,-0.4120484036819105,9.79999596399226
1727706317.5449543,-5.690516061476242e-07,1.9205468926112556e-07,0.31721033046280045,-0.948355211008681,-2.379252020337233e-07,-3.826434106507859e-07,-0.30199756634763475,-0.3550233983156443,-0.6903164659505522,9.799998442692903
1727706317.6049705,-5.633601598846984e-07,1.934877454898815e-07,0.3216888084191508,-0.9468454522980569,-2.4248395990824013e-07,-2.522003999937731e-07,-0.19768001915742123,-0.3429371071148624,-0.7138816855128939,9.799998777248494
1727706317.630952,-5.616936714355939e-07,1.9468672827016406e-07,0.32447853423901296,-0.9458930599268334,-1.3583003018472989e-09,-2.455590013231676e-07,-0.22005694945705995,0.33396912495718384,0.03440293712116576,9.79999784648997
1727706317.8768837,-5.621429608028559e-07,1.971186971243865e-07,0.3280064697382227,-0.9446754764518412,2.4523922781134183e-07,-3.010862200605024e-07,-0.23896302699070474,-0.35000775003067514,0.6201404227690012,9.800002019346142
1727706317.8802414,-5.642857200049847e-07,1.9995015340017292e-07,0.3308710877483324,-0.9436759630783635,4.297535561512047e-08,-2.3153948475611937e-07,-0.18956383317221875,-0.09629112924274606,0.12140673342206824,9.799994203299248
1727706317.9177437,-5.634276797415193e-07,2.020169940843135e-07,0.33439511380700265,-0.9424329726095344,-8.434150760920345e-09,-2.227733671292394e-07,-0.18657124801244732,0.012536206062872984,-0.004873275158467798,9.799998095814026
1727706317.9520721,-5.651922298707559e-07,2.0442129280888293e-07,0.3369881960899723,-0.9415088718093234,5.094386346405577e-07,-2.1830654439054096e-07,-0.17745182938289164,-0.11574236005013176,1.4131520600963003,9.800006650246683
1727706317.9843748,-5.656425859668783e-07,2.0617130371561172e-07,0.33923524269460464,-0.9407015733555304,-1.1512717708356354e-08,-1.8916617975367255e-07,-0.15700781429224248,-0.0018580852065113859,0.006000360360917786,9.799997688185922
1727706318.0246303,-5.656165824179821e-07,2.081388165183383e-07,0.34213601129534565,-0.9396504402034555,-1.3784439036503233e-08,-1.8403121791854218e-07,-0.1530799625375991,0.011927468337876926,0.005480213704528046,9.799997869889571
1727706318.257852,-5.656637213021197e-07,2.096268678201647e-07,0.3441781323854061,-0.9389043684994387,1.432978108022635e-07,-1.7062098502289035e-07,-0.1287967165023161,-0.32457100377642717,0.3945017305846802,9.800000973762005
1727706318.287801,-5.673018342053113e-07,2.11258873928633e-07,0.34542452066275553,-0.9384465357837595,6.65091042836263e-08,-9.541162002836758e-08,-0.07374659921009971,-0.1505469927932188,0.22235897356921058,9.79999593142299
1727706318.3762023,-5.66305465694051e-07,2.1170261832815959e-07,0.3465660632009549,-0.9380255667288745,-2.266265397298348e-08,-6.657174859594862e-08,-0.05604191934498446,-0.005305983070331382,-0.005927396777742976,9.79999862229164
1727706318.6329176,-5.625965304098879e-07,2.108391804191678e-07,0.34734482253935384,-0.9377374761918944,-7.139326787189101e-07,-6.427271401301101e-08,-0.0545077174343052,-0.011690972197563628,-1.9247604294282947,9.799987127223744
1727706318.6377685,-5.549408639424286e-07,2.084783035484385e-07,0.34819788183159955,-0.9374210553895383,-2.731683950610756e-07,-7.324220935084735e-08,-0.07305421195226862,0.2470712831286212,-0.7238571842472832,9.80000625220224
1727706318.6549218,-5.521044247458164e-07,2.08257469287437e-07,0.349778380067481,-0.9368324742647538,-1.5688390031161588e-07,-1.4164752238564014e-07,-0.13108534281656808,0.2550512953473403,-0.42102261117797185,9.799999658793121
1727706318.697179,-5.487054683224331e-07,2.0890865203075893e-07,0.3530389179539883,-0.9356086374171266,-1.4171450854880078e-07,-2.2242127822293476e-07,-0.1993788094966538,0.23750696622360656,-0.40269438726344314,9.799999184867266
1727706318.758597,-5.461762208214219e-07,2.0994681571906277e-07,0.3562891656870069,-0.9343757436993503,-1.2943119690402422e-07,-2.789160047632465e-07,-0.2476626906112583,0.2245770104208038,-0.38626310952547277,9.799999201575144
1727706318.7886791,-5.455551285204493e-07,2.120555302956098e-07,0.3598321881145463,-0.9330170397138281,1.8808409208430053e-08,-2.959861310835077e-07,-0.25360517349546297,0.006010421114932708,-0.0094729469787711,9.79999876613725
1727706319.0318625,-5.448331644808185e-07,2.1494037104230375e-07,0.36466416495482695,-0.931139112483981,1.6378848141866274e-08,-3.078836067944266e-07,-0.27565981646468857,0.30854640985145393,0.02571522372469243,9.79999871356751
1727706319.03414,-5.441125650906397e-07,2.1743719875117938e-07,0.3691226322741502,-0.9293806982838944,1.5746851975125204e-08,-3.8554333519015733e-07,-0.3414397609204206,0.309262925459119,0.01631685649013245,9.79999877351802
1727706319.0591943,-5.432535889456318e-07,2.2051492732869176e-07,0.3744433230138631,-0.9272498033701555,3.717965052414005e-08,-4.5832430802736806e-07,-0.3976529201618687,0.17585390110656499,0.04862206279410377,9.799999194102137
1727706319.1045187,-5.418689803884519e-07,2.2505331830839277e-07,0.38192995246273254,-0.924191274256293,1.973551319647147e-08,-4.75905542733705e-07,-0.40543036204210325,0.007336410919227542,-0.022274361047513618,9.79999889727853
1727706319.137957,-5.407661390334483e-07,2.2846719760604647e-07,0.3875453547133734,-0.9218506375979466,1.9072074203018886e-08,-4.765315098535535e-07,-0.4056067601671437,0.00350639447677349,-0.022987545399895438,9.799998935482229
1727706319.1672125,-5.396109287493046e-07,2.3192223020446864e-07,0.39339691944493593,-0.9193687311252703,2.3891221221780972e-08,-5.081193671105513e-07,-0.43808024268699247,0.15128567317577385,0.006446182729368063,9.79999913572443
1727706319.3715522,-5.3834216030498e-07,2.3561804657789722e-07,0.3995042763582101,-0.9167313309640712,1.9051045046142193e-08,-5.224986311416843e-07,-0.44446250167758194,0.01278739289770174,-0.02625052853816894,9.79999899852278
1727706319.413419,-5.363039627515162e-07,2.408367816489905e-07,0.40863815058202785,-0.9126964785121909,1.162783906213413e-08,-6.122722312529814e-07,-0.5321535084931098,0.3123194297496081,-0.02259849722794391,9.799999039088142
1727706319.4434311,-5.347368909878175e-07,2.4547646389246184e-07,0.4163809483784458,-0.909190247322924,3.011905477587358e-08,-6.750251882937176e-07,-0.5760243289935558,0.0928176335461447,-0.012396290982933794,9.799998562247586
1727706319.6811361,-5.328975283988409e-07,2.502688968376814e-07,0.4242642171826305,-0.9055384442518513,2.18015385323697e-08,-6.837179023252251e-07,-0.5797669641635697,0.011839609349024371,-0.0460267373013788,9.799999116634284
1727706319.6945004,-5.299734201366665e-07,2.5686946691690154e-07,0.43572223471875526,-0.9000811819893509,9.524726931908666e-09,-7.734789349355786e-07,-0.6674429969321792,0.3152034695576155,-0.06072576208233932,9.799999178635547
1727706319.725835,-5.278891564005654e-07,2.6258291527917364e-07,0.44503567385365994,-0.895512841335774,2.7636326536352262e-08,-8.205634989891828e-07,-0.6958549721482555,0.048973686461356414,-0.05568618629905474,9.799999048113701
1727706319.7549798,-5.25442473198196e-07,2.682844631235581e-07,0.4543778684304787,-0.8908090438922509,2.463781298116304e-08,-8.248432148168777e-07,-0.6975646274133053,0.011963278977246585,-0.06770921534962503,9.799999235527109
1727706319.8138165,-5.219203874623582e-07,2.761699939383394e-07,0.46759317418633445,-0.8839437897592808,3.3340433539030316e-08,-8.978201192749501e-07,-0.7616346958150809,0.09088472770324851,-0.05199849196895442,9.799998844604936
1727706319.8418803,-5.188930737072429e-07,2.823138393629796e-07,0.4779777669986757,-0.8783719338950958,1.2937219317225623e-08,-9.42027669623477e-07,-0.8073538914652227,0.3146750214770566,-0.09094693301721166,9.799999459925495
1727706320.0668764,-5.159149823771499e-07,2.8896959947424316e-07,0.48876747244922447,-0.8724140977054686,3.038861430255511e-08,-9.760993809235e-07,-0.8242396167000313,0.03677155568955535,-0.08741845281870063,9.799999240506581
1727706320.0689278,-5.122541027585852e-07,2.9554402931592276e-07,0.5000854252312936,-0.8659760778860386,4.693921865778137e-09,-1.0410220426526454e-06,-0.8899763498814832,0.32171901441913986,-0.14243054359911247,9.799999431325269
1727706320.101678,-5.07627461998855e-07,3.0543144591611886e-07,0.5160217640880829,-0.8565754718570173,3.765851821643466e-08,-1.1069608122766455e-06,-0.9330601405093074,0.04724236251278959,-0.1062719200494061,9.799999159609122
1727706320.134175,-5.036945694866147e-07,3.12808871972282e-07,0.5279736072488961,-0.8492607785882006,3.268942400700148e-08,-1.11076016362804e-06,-0.9343752903677892,0.01895157181755517,-0.12182949351395138,9.79999944976313
1727706320.1692426,-4.996346236751058e-07,3.201294663298526e-07,0.539825134187099,-0.8417771822160116,3.1610910569920436e-08,-1.111739107077464e-06,-0.934454413070287,0.01723772820592286,-0.12223788615627762,9.799999474320801
1727706320.2073092,-4.93914188260054e-07,3.297045279156909e-07,0.5555531719412116,-0.8314810118972688,-4.358650954252807e-10,-1.1244078015747902e-06,-0.9563730442448402,0.3255436769491837,-0.17135794352402706,9.799998976837102
1727706320.4032793,-4.895298417265371e-07,3.3727649494103486e-07,0.5678386211448736,-0.8231399032582098,4.528182682337005e-08,-1.1863788064534165e-06,-0.998693160450268,0.09932539592047455,-0.09628648300016296,9.799998772143756
1727706320.4341927,-4.84263566137206e-07,3.447332931653201e-07,0.5806406068877221,-0.8141599877374865,-1.4250846675068567e-09,-1.2543738983993116e-06,-1.0644068161289644,0.32766630356132986,-0.2230004032124681,9.799999663107092
1727706320.480793,-4.77675709338601e-07,3.5602911898512687e-07,0.5984036395547656,-0.8011947854094253,4.503475937917576e-08,-1.3221089318042818e-06,-1.1081486166825536,0.056468449169566656,-0.15244802848691033,9.79999926473927
1727706320.7454536,-4.721102760070636e-07,3.643170091588428e-07,0.6116523159821804,-0.7911266929849348,3.8661651980416705e-08,-1.3265174901613818e-06,-1.109568923440094,0.026045303006184566,-0.17190523881007733,9.799999632998349
1727706320.751325,-4.7356229749376646e-07,3.781472216462489e-07,0.6245594613655056,-0.7809772590917499,6.400369680226671e-07,-1.3224874899707587e-06,-1.0873182303688467,-0.05896653600715602,1.528631505825561,9.799997474868746
1727706320.7695186,-4.745570002041824e-07,3.9182681040087576e-07,0.637049034515323,-0.7708232791131284,6.207784063164923e-07,-1.3204687976365445e-06,-1.0661075054169786,-0.00045864893456020974,1.5406694183677712,9.79999745135383
1727706320.8140142,-4.751546497307289e-07,4.097725758822011e-07,0.6530811048474374,-0.7572879706497764,5.828339539131966e-07,-1.3168050563588768e-06,-1.038730714715637,0.06560321876980647,1.518463235611013,9.799997210612073
1727706320.8810039,-4.726698279034466e-07,4.20726375423181e-07,0.6644148307611915,-0.7473639894082246,3.27107097155325e-07,-1.2722489697675355e-06,-0.9852479084101773,-0.06298063823712118,0.8488206575893392,9.799998369807852
1727706320.91338,-4.6957101184388003e-07,4.306447753375987e-07,0.6749905134791367,-0.737826406895799,2.831442492051288e-07,-1.2132174129014956e-06,-0.9322456875139841,-0.025334644153450492,0.7813715775597077,9.799998991118185
1727706321.1533494,-4.6167719110702184e-07,4.3971665547994635e-07,0.6883183220374727,-0.7254087727254968,-7.318248920810697e-08,-1.1724289108054157e-06,-0.9051094773647014,0.19326202428983064,-0.1499687982576794,9.799999345233683
1727706321.1549175,-4.612418965332553e-07,4.5162228456161984e-07,0.6980025177273261,-0.716095304583054,5.226249123182252e-07,-1.166471027881961e-06,-0.8911347636207263,0.18296027304370074,1.5330761073016554,9.799997469819571
1727706321.175867,-4.5829552068153724e-07,4.6104060301882925e-07,0.7071946487925374,-0.7070189026601601,2.555906477711895e-07,-1.126985549141177e-06,-0.8456943357202253,0.03591780477504337,0.8192396419330114,9.799996470030974
1727706321.216356,-4.5386525663863407e-07,4.7228644477148525e-07,0.7184533140738552,-0.695575183208735,2.2447056992900228e-07,-1.044970672132019e-06,-0.7764030768493236,0.03265432543991687,0.78772127492902,9.79999809997397
1727706321.2524,-4.3983255458185387e-07,4.688954963804226e-07,0.7264222168201832,-0.6872486907296641,-8.041655368449082e-07,-1.00526081045878e-06,-0.7642356262141164,0.2124093458234411,-2.0685019790914407,9.800002418659345
1727706321.2851868,-4.2631803519310984e-07,4.6538759927439933e-07,0.7341643606481261,-0.678971789954288,-7.8064930165527e-07,-9.66668004708866e-07,-0.7511343081796766,0.15844290203835662,-2.0645869267319825,9.800002372384984
1727706321.3097756,-4.1458302374038393e-07,4.6315298977949594e-07,0.7415963753484383,-0.6708463431141826,-4.6946965221840426e-07,-9.152419504684151e-07,-0.7182618666816395,-0.1021586322674302,-1.2824636020811022,9.800005329492079
1727706321.5712461,-4.030058403609771e-07,4.6312700122002773e-07,0.7504619793981779,-0.6609136233104836,-2.8741517805622773e-07,-7.938862279923599e-07,-0.629009883048231,-0.25255714173683713,-0.8120419134711219,9.800001722459308
1727706321.6098752,-3.9624429491523505e-07,4.6384905560576273e-07,0.7561307119741816,-0.6544206188752347,-2.576824927664661e-07,-6.87276442207276e-07,-0.5472798026898729,-0.29416914569285624,-0.7320502759734547,9.8000006094022
1727706321.6429114,-3.9017797724575643e-07,4.640831410115048e-07,0.760944363152486,-0.6488171361686509,-2.5193315671202274e-07,-5.81264302430565e-07,-0.46507425427697857,-0.3176598023483107,-0.7184671722192228,9.800000564220415
1727706321.8763838,-3.910611941611916e-07,4.7338213928764265e-07,0.7664831136865234,-0.6422644598862952,5.864722786563765e-07,-5.16297990485389e-07,-0.4203691917029348,-0.02197430228409231,1.6770862887835603,9.79999749326884
1727706321.9017098,-3.936549566990271e-07,4.824768831489464e-07,0.7704094496459176,-0.6375494332958712,5.690433170995319e-07,-5.038477452759579e-07,-0.40343111952103694,-0.0017244089208657046,1.68056590627368,9.799997473014617
1727706321.9339886,-3.9609802825797103e-07,4.913329700973686e-07,0.7741480901918969,-0.633004529566606,5.521196429656222e-07,-4.908713540181315e-07,-0.38682329950995004,0.01673480667685287,1.683814238586433,9.79999745339832
1727706321.9975512,-3.958024761317886e-07,4.983427192045057e-07,0.7785131172585862,-0.6276283344909739,1.374603078379238e-07,-4.126178347118115e-07,-0.3116419340639632,-0.23977877342376178,0.549108882333294,9.799998441250194
1727706322.0299234,-3.9417288673904596e-07,5.00717440393405e-07,0.7810752013249797,-0.6244369702978326,-5.76347401217841e-08,-3.373489143097807e-07,-0.2624776590338733,0.002109233835875004,0.06016677665145057,9.799996858266319
1727706322.0590255,-3.917982978453188e-07,5.013201300897977e-07,0.7831329240111523,-0.6218543425347594,-8.037754056850472e-08,-2.7184414281516685e-07,-0.21375273202367404,0.020594826157244693,0.001328609755955158,9.799999117490943
1727706322.300287,-3.9297671701411423e-07,5.060144764136758e-07,0.7850555771607849,-0.6194253310677053,4.248800527425917e-07,-2.579220825482157e-07,-0.1986880382172448,-0.0638354025443761,1.4018726846183298,9.79999568230377
1727706322.3159869,-3.932512491193013e-07,5.097396370872894e-07,0.7868719939047197,-0.6171162493469088,2.0945230929880487e-07,-1.584942557088598e-07,-0.11769642283645293,-0.18919966987138506,0.817220951778621,9.800000651593757
1727706322.3486497,-3.926174367288544e-07,5.103802954888776e-07,0.7876919400024376,-0.616069320494684,-8.817450513024254e-08,-1.0323177923978282e-07,-0.08285887622674233,-0.010624644647575579,0.028680297873497483,9.799998172391946
1727706322.3756788,-3.908747841988468e-07,5.09303499319961e-07,0.7884505183450885,-0.6150981873822658,-1.0857729429952806e-07,-1.0009497592909939e-07,-0.08225965748903097,0.03207108955608891,-0.03185276201180024,9.800001175836673
1727706322.4163759,-3.8896141058690467e-07,5.083879924264979e-07,0.7894616426432748,-0.6137998980079522,-9.343343661954546e-08,-1.0006515200575205e-07,-0.08228080629936425,0.031287149256560606,-0.0009333548550197598,9.799999783722111
1727706322.4477565,-3.8775160747274716e-07,5.079126003257124e-07,0.7901168472300742,-0.612956252698999,-8.484103195972588e-08,-7.839624989050603e-08,-0.06365159645179082,-0.030963701239713263,0.008787403743717757,9.799999031742075
1727706322.6839197,-3.900036119978676e-07,5.116672931544701e-07,0.7906642836978238,-0.6122499411875785,4.23276773297053e-07,-6.948899179478193e-08,-0.055066920239294354,-0.06024585248046371,1.4234588372800125,9.799995743663537
1727706322.744681,-3.9111279818820945e-07,5.134634520983304e-07,0.7907585619851156,-0.612128170113756,8.116789917561933e-08,2.274076066691568e-08,0.02184908539908436,-0.27499941541371203,0.46902429546327595,9.799999079059445
1727706322.775189,-3.919314731381346e-07,5.138409344153314e-07,0.7904327568851035,-0.6125488199667004,-9.419730676999175e-08,5.6804985317212155e-08,0.03787263719038562,-0.03432568137722577,0.026504156704866545,9.799998502793047
1727706323.0243206,-3.9366808631999666e-07,5.152507713858347e-07,0.7900048510453309,-0.613100591521835,1.3231922805018275e-07,7.401036084076486e-08,0.058841384927872165,-0.24638312410298913,0.6307030940636685,9.79999356276124
1727706323.0317056,-3.937219459300064e-07,5.139023358006843e-07,0.7892333258531912,-0.614093443510262,-1.0447505956566773e-07,1.2157157268937135e-07,0.08680365651689881,-0.06238801452246262,0.0013667691031328995,9.799999590506626
1727706323.072375,-3.9348869164866225e-07,5.114437379986146e-07,0.7881591677977892,-0.6154714666139119,-1.0222515021971632e-07,1.2272535952354232e-07,0.08741615789083444,-0.041204536430873774,-0.0009877916396532802,9.79999983463653
1727706323.10311,-3.9256265335426973e-07,5.086650925582541e-07,0.7873702817509973,-0.616480364176299,-1.2817904882351922e-07,1.1794380758892727e-07,0.08398928228461212,-0.029020661737171043,-0.08580392902362662,9.800003733948683
1727706323.1900241,-3.924102279122644e-07,5.069388962738003e-07,0.786595310387139,-0.6174688799255792,-9.388698168750288e-08,1.1647551076273738e-07,0.08370902071594792,-0.038525752010356115,-0.0010980905308342979,9.799999854553759
1727706323.2329564,-3.9235163286380556e-07,5.047418504993035e-07,0.7854677645185563,-0.6189025697973898,-8.985293697779338e-08,1.301014832198779e-07,0.09488692803855737,-0.05258107213634683,-0.0017298460075806485,9.79999982358204
1727706323.4365878,-3.9429461417817224e-07,5.054825621126711e-07,0.7844885128376,-0.6201433489326799,1.2277671308484015e-07,1.5036942615773492e-07,0.11858523097449827,-0.2728464709907375,0.5607662695116474,9.799995124257883
1727706323.4387863,-3.959784052111101e-07,5.05379403822113e-07,0.7832256649478501,-0.6217375312514002,-7.818165728911953e-08,1.8915676125030955e-07,0.1403044122391852,-0.10315504295009939,0.03852165870453399,9.799997799683371
1727706323.4674442,-3.9644427782996473e-07,5.027143682738288e-07,0.781451415450286,-0.6239660930614217,-8.988551454074938e-08,1.9457053846014093e-07,0.1440629129283829,-0.07941753010669395,-0.00017754527330538232,9.79999970438793
1727706323.7266285,-3.9728721209878673e-07,5.012300162218172e-07,0.7799946347640181,-0.6257862013011608,-7.174589455800675e-08,2.1675451117146995e-07,0.16306238316317237,-0.13613086177304068,0.037864589941574385,9.799997670191914
1727706323.7301164,-3.977369382627595e-07,4.989974175002355e-07,0.778424195317619,-0.6277386176934713,-8.708640529086548e-08,2.24546627205291e-07,0.16751720882351837,-0.08650655815548508,-0.005426654105662296,9.799999937812753
1727706323.7573802,-3.983006036053518e-07,4.968920680406179e-07,0.7768435725681332,-0.6296936269005539,-8.405339716256688e-08,2.2408615152606125e-07,0.16761338555343552,-0.08318285436433726,-0.0036590376003124525,9.799999882242808
1727706323.7986493,-3.990994220439319e-07,4.942010648920847e-07,0.7747721993467028,-0.6322404915212797,-7.927773405606628e-08,2.1408759534373716e-07,0.15982131097606841,-0.05639156788128176,0.004735743806528548,9.799999664073257
1727706323.8269873,-3.996272358923867e-07,4.922216230026623e-07,0.7732597377051719,-0.6340894085566536,-7.866372298874412e-08,2.114138815674726e-07,0.15918046542141806,-0.07852002609769522,-0.0031941313991807017,9.799999888949761
1727706323.8615592,-4.002492034779108e-07,4.902552514181118e-07,0.7716248676890038,-0.6360778753922562,-7.607414790532541e-08,2.2839649458805468e-07,0.17310040865397594,-0.0966580083376222,-0.005123183214401674,9.799999883775154
1727706324.114846,-4.011717023313449e-07,4.875985311981021e-07,0.7693639150385907,-0.6388107436761639,-7.224773188224377e-08,2.387159072291179e-07,0.18230891268460883,-0.11672281209145376,-0.005651735615975555,9.79999979798458
1727706324.1180048,-4.019299407886168e-07,4.855591000775888e-07,0.7675745478447822,-0.640959681649697,-7.088152562239164e-08,2.4701755061454295e-07,0.1888689678598155,-0.11142124220843416,-0.007284777981591566,9.799999913202111
1727706324.1409416,-4.027366012072548e-07,4.835154869484236e-07,0.76575134395162,-0.6431367500274663,-6.87255793706484e-08,2.478628313073184e-07,0.18936381394033994,-0.09434887276364332,-0.004722291281942011,9.799999905840382
1727706324.1855114,-4.0382296900570063e-07,4.808337495663053e-07,0.7633256132594907,-0.6460139380397518,-6.606813969756675e-08,2.438925426077975e-07,0.18666145746749854,-0.08466038001886138,-0.0033356551972111765,9.799999904386919
1727706324.2554424,-4.0462915374969985e-07,4.788661215851241e-07,0.7615157720675247,-0.648146379216924,-6.416462378160611e-08,2.425613720480883e-07,0.18643845454245325,-0.09235405618402921,-0.004493442498043198,9.799999912032145
1727706324.2940803,-3.9871735337605636e-07,4.690968925165944e-07,0.7597759254987325,-0.6501850067728149,-7.433429902411599e-07,2.2738351786221068e-07,0.17485293454659404,-0.0334984504327142,-1.922509560975716,9.800002411292848
1727706324.512143,-3.971659646356279e-07,4.6470159027828767e-07,0.7581401629205449,-0.6520916295785707,5.962650821281096e-07,2.0727485023291558e-07,0.16389628952973873,-0.01343524559273173,1.7303550891766684,9.800023899548723
1727706324.5185835,-4.063234985491209e-07,4.7215243471398434e-07,0.7561081353832048,-0.6544467034120847,5.726769339843621e-07,1.945694576607976e-07,0.1506810933450317,-0.023868568467286876,1.7304853341268671,9.799997633350378
1727706324.551402,-4.081185496169876e-07,4.717711726496212e-07,0.7544482052433509,-0.6563595855967196,-4.758123404828969e-08,2.210668426369702e-07,0.1724898074271025,-0.11188204062544126,0.021785832924620305,9.799998604131451
1727706324.8792272,-4.087428531483055e-07,4.6985900018406473e-07,0.7528498148966632,-0.6581923398290745,-9.218841603114294e-08,2.0316852882960368e-07,0.14014859662684453,0.3761734174725175,-0.03780664790445325,9.799999305227955
1727706324.8923507,-4.094048504045867e-07,4.6806480615470404e-07,0.7512456227387895,-0.6600227377260739,-5.502466407539435e-08,1.538810060182965e-07,0.11984990875592524,-0.055317345242018076,-0.0009209976730673454,9.799999911034522
1727706324.922601,-4.097472587704757e-07,4.6669038367874054e-07,0.7500894459747158,-0.6613363917379398,-5.352944777029149e-08,1.4889280923373231e-07,0.11628557077424556,-0.05512146666605797,-0.0012480072688884072,9.799999923271642
1727706324.9524167,-4.100844884877385e-07,4.6534039380926804e-07,0.7489600330361279,-0.6626151740747696,-5.175960588221539e-08,1.4399570358531453e-07,0.1087828880302203,0.04616414728698002,0.01336000348959538,9.799999925902302
1727706324.9964201,-4.1045583906146874e-07,4.6365071385197553e-07,0.7475510707051595,-0.6642043335353859,-5.004949362007902e-08,1.348186708256102e-07,0.105933268651746,-0.0521400484990933,-0.001341649954398411,9.799999932514641
1727706325.0531156,-4.1074032290806854e-07,4.6241056197516526e-07,0.7464917610531893,-0.6653946578379821,-4.8560462545288274e-08,1.3509165511345905e-07,0.10643866055821723,-0.05451613312871142,-0.00164571372144756,9.799999934579699
1727706325.3127706,-4.110400176738409e-07,4.61184904088574e-07,0.7454551021354936,-0.6665558421466121,-4.69345976851267e-08,1.3025970685622357e-07,0.09837161795134851,0.06046705010356092,0.014845491446238002,9.799999931317457
1727706325.316208,-4.1127239711092554e-07,4.600440060217412e-07,0.744510871465901,-0.6676103371493765,-4.582915451907399e-08,1.181800938857836e-07,0.09316808126775222,-0.037747650472528066,0.00019466551810374218,9.799999933248214
1727706325.3550088,-4.115662239291092e-07,4.5857533350725757e-07,0.7432685749955286,-0.668993143031927,-4.4055902437239945e-08,1.17145018972813e-07,0.0929219885915399,-0.04623694800390668,-0.0010872803656718408,9.799999940911633
1727706325.3836403,-4.117967212618706e-07,4.574931107961662e-07,0.7423193423182006,-0.6700462625967665,-4.28679224164198e-08,1.1970102557474077e-07,0.09771468741109636,-0.11339488691513207,-0.010726886766063648,9.799999945973111
1727706325.479964,-4.1208056357082365e-07,4.563881628839738e-07,0.7413201664174377,-0.6711515558072143,-4.142859840482495e-08,1.2507052096420696e-07,0.09952450753794848,-0.05096186255370145,-0.0014714135010005563,9.79999994557528
1727706325.5210295,-4.124150878622251e-07,4.549936277064715e-07,0.7401385242341112,-0.6724544333590008,-3.989593045299908e-08,1.035994318670819e-07,0.08223045275190158,-0.027609881095556704,0.0011544555751367813,9.799999938103316
1727706325.7318094,-4.1259801979575473e-07,4.540241150037196e-07,0.7393870566343799,-0.6732806105043958,-3.998102269253498e-08,8.953349982237057e-08,0.0595299671765053,0.27203306026004054,0.038983195611200804,9.799999904152473
1727706325.7390537,-4.125935520744925e-07,4.5325335720568836e-07,0.7388617503734635,-0.6738570425800163,-3.7772327514503136e-08,6.348037750616333e-08,0.051093366158856415,-0.018979993683418378,0.0006499758097835155,9.799999945513898
1727706325.7793121,-4.125494841234201e-07,4.5230104622773394e-07,0.7382382922594758,-0.6745400090739153,-3.618672606099168e-08,5.108854624349837e-08,0.040386356250778147,0.010819302754276902,0.004645425410503591,9.799999923212214
1727706326.0456386,-4.1246746996509427e-07,4.516626165200646e-07,0.7378936479428209,-0.6749170055090195,-3.3667184680533413e-08,3.890773173317016e-08,0.02284066243837567,0.21446413228453742,0.03644011625620948,9.799999960621452
1727706326.047453,-4.122401152063481e-07,4.511685630987844e-07,0.7377195133828762,-0.6751073392978029,-3.430316836832671e-08,1.949986621105633e-08,0.016525216727315818,-0.0033825723611045516,0.0007207757675627153,9.799999950204878
1727706326.0673878,-4.120050190187794e-07,4.506990751102503e-07,0.7375355660644884,-0.6753082916635641,-3.331538079184707e-08,2.2382987073321956e-08,0.019349165911532896,-0.018266148434422574,-0.001305916523783625,9.799999959676587
1727706326.1125088,-4.1173031185391875e-07,4.500697749024054e-07,0.7372711757523188,-0.6755969311685937,-3.197907253317543e-08,2.3139084555109428e-08,0.01959342895482247,-0.009840730153357775,-3.886759272507784e-05,9.799999956786639
1727706326.1440241,-4.1151348644483603e-07,4.496315650795418e-07,0.737127359675118,-0.675753842473735,-3.102985191912008e-08,1.576169425065695e-08,0.013545408594614174,-0.002100895501000105,0.0006892105545883149,9.799999955289797
1727706326.18113,-4.1128518146641103e-07,4.4922157081086096e-07,0.736990403976168,-0.6759032064183996,-3.012094983922863e-08,1.5529255937675364e-08,0.013551423011699273,-0.007072776526090471,-5.148767490185264e-05,9.7999999594019
1727706326.4249306,-4.1092572252859486e-07,4.4860797482187877e-07,0.7368580259717082,-0.6760475201941852,-5.044559538339866e-08,7.1382205801584815e-09,-0.0015102899663190716,0.20417888834135117,-0.030785372133059395,9.799999593577684
1727706326.4370766,-4.1057988041371726e-07,4.4832930456897554e-07,0.736924877098268,-0.6759746485729571,-2.790369824982263e-08,-1.0281011988401887e-08,-0.007198822163746674,0.007985875415453932,0.00048756312270741573,9.799999967056273
1727706326.4635768,-4.100032432898913e-07,4.4783730945071433e-07,0.7370008473390769,-0.675891819022182,-3.496754192484281e-08,-1.0928421457070622e-08,-0.007631449870909824,0.004775938690805885,-0.023542286953823145,9.800001030498322
1727706326.5049355,-4.096268354357467e-07,4.476154098692109e-07,0.7370911769629959,-0.6757933092617425,-4.791479467654875e-09,-8.79448931579008e-09,-0.0037627346685898616,-0.05070137261016503,0.04936233543456135,9.80000030409344
1727706326.573538,-4.0934888313211445e-07,4.473839961639176e-07,0.7371160027231579,-0.6757662306811917,-2.4708970470782897e-08,-4.222828100422779e-09,-0.002292457654047452,7.149227129903135e-06,7.064324391164994e-07,9.799999958964813
1727706326.6033998,-4.08888915362786e-07,4.469408125354587e-07,0.7371547990201477,-0.6757239098042919,-7.872902349105665e-08,-6.636224577685643e-09,-0.00695091192170247,0.06666195709163175,-0.1426606637225744,9.799999066758398
1727706326.8296914,-4.085562057558803e-07,4.467182372896426e-07,0.7372412607323675,-0.675629575635483,-2.284688754058023e-08,-1.205297997452853e-08,-0.00871922991083916,0.00569258092702638,-0.000223492649455368,9.799999985810958
1727706326.8328233,-4.064524572258942e-07,4.4524899483429876e-07,0.7380576452690131,-0.6747376618061246,-3.518614059502649e-08,-9.533094368892207e-08,-0.07812084702658481,0.09946820792985384,-0.04064821361347106,9.800002141281821
1727706326.861399,-4.0591757568778976e-07,4.458199753662856e-07,0.7388474018008118,-0.673872774974495,4.9292254676926865e-08,-9.78753096968965e-08,-0.07511818618948486,-0.025943404982020038,0.1739982515201643,9.800001065611147
1727706327.1521966,-4.052393767602246e-07,4.4615951289275096e-07,0.7395905222433047,-0.6730570996635518,-1.704910548244174e-08,-9.239567349395075e-08,-0.07337640205783719,0.03446538476695258,-0.00041551376630214886,9.799999948237577
1727706327.1554117,-4.0229744429844903e-07,4.440371463426989e-07,0.7402529562556516,-0.6723284619547274,-1.3703996715281557e-08,-5.504699148604426e-08,-0.04329328571866088,0.006363856223920525,-0.011934811879049153,9.800000411211354
1727706327.1782517,-4.0234997167570174e-07,4.447229706106589e-07,0.7406808364628443,-0.6718570521296489,6.216830185178621e-09,-5.293824289467713e-08,-0.04205847256510868,0.017125889481442728,0.04735306552811695,9.799997809144552
1727706327.210139,-4.019428402315779e-07,4.448877231782257e-07,0.7411038585160552,-0.6713904012512057,-1.0921495497021159e-08,-5.26125898281614e-08,-0.041981840840457835,0.01980236266598732,-0.00011274392706198974,9.799999966067626
1727706327.250753,-4.0140213971754227e-07,4.4515922208241475e-07,0.7417300143169697,-0.6706985804823121,-1.0445534478816631e-08,-6.086813073788962e-08,-0.04895683642603269,0.028576716099210638,0.0009637393264213304,9.799999948309663
1727706327.3027842,-4.0091367601345173e-07,4.4532908981227184e-07,0.7422221371766887,-0.6701539368566819,-1.1387941958991603e-08,-6.094828727586853e-08,-0.048846368350693975,0.022463542823824595,-0.003580717790625623,9.800000116881286
1727706327.5536141,-4.004608806462463e-07,4.455345169121519e-07,0.7427127926259778,-0.6696101161641469,-9.937881585178961e-09,-6.080783760352446e-08,-0.04882808192228411,0.023094094858868913,-0.00033450464209943467,9.79999997529815
1727706327.55601,-3.978491695125418e-07,4.4320556229024887e-07,0.7430287183028981,-0.6692595339453878,-2.5080266294178115e-08,-3.4407978054365366e-08,-0.026138347001509153,-0.02686155388571546,-0.0663321841687374,9.800002722518302
1727706327.5882204,-3.974589268184873e-07,4.4336054341626903e-07,0.7434646794175174,-0.6687752017369165,-2.679521628171314e-09,-4.1006383982904076e-08,-0.03322233489532051,0.016573439476914496,-4.834992587728124e-05,9.79999997982584
1727706327.6211674,-3.9719587300104645e-07,4.435454940823278e-07,0.7437982359595215,-0.6684042071854047,-2.5635173900387112e-09,-4.108577928273157e-08,-0.03326416967567937,0.015122809072286449,-0.00014327464007621768,9.799999975820224
1727706327.7075453,-3.9674802840592947e-07,4.435372162792834e-07,0.7441567954481858,-0.6680049878465973,-8.687732309502312e-09,-4.556615037100068e-08,-0.03748699665141087,0.029398379541182476,-0.01692361641106352,9.80000080679959
1727706327.7517228,-3.9605376694619955e-07,4.434839634464586e-07,0.7446418955968419,-0.6674641917897831,-9.400042586785061e-08,-4.330632029277448e-08,-0.031907702733829486,-0.06599091055687537,-0.26690096894786797,9.79999847028216
1727706327.9650857,-3.957775087912727e-07,4.436139458578797e-07,0.7449412524356582,-0.6671300700907128,-1.028137891797484e-09,-3.654770389398259e-08,-0.02966879469035896,0.011588666451609783,-0.0010873629681163069,9.800000010946965
1727706327.966889,-3.9418906810804114e-07,4.419200404268054e-07,0.7447348711857378,-0.6673604510604534,-1.964647012085882e-07,3.720296676799282e-08,0.042493487431660974,-0.3123818641390654,-0.5918778646318843,9.800000577018015
1727706328.0008826,-3.925038638853292e-07,4.3868774323981296e-07,0.7434815587674528,-0.6687564368081791,-1.3984227959340126e-07,1.36478695411159e-07,0.12185245224527205,-0.2790678730814477,-0.4502367278797985,9.800001381410135
1727706328.2880158,-3.934079071626609e-07,4.379439681837721e-07,0.7422012157180407,-0.6701771074770577,1.1519701953465812e-08,1.5498592443066064e-07,0.12817186244191828,-0.057729182848605766,-0.00404214270646275,9.80000003555383
1727706328.2899845,-3.9031920636636954e-07,4.327243136289573e-07,0.7407877434575878,-0.6717391749352388,-1.900975133816282e-07,1.7592130461116746e-07,0.15721454255567976,-0.3133898394002598,-0.6265547038654558,9.800003177597919
1727706328.3127053,-3.9165890661177474e-07,4.3199473781722207e-07,0.7391313045459315,-0.6735613666473823,6.475688443937177e-08,1.9696411119222785e-07,0.16530164009674936,-0.07434477726516407,0.10724881817868258,9.800000752834798
1727706328.3493083,-3.9348658622771826e-07,4.309881898036789e-07,0.7368961424136689,-0.6760059728253244,2.2743660906871923e-08,1.9810530866496405e-07,0.16565213035965415,-0.06255808522737857,-0.0035906510281396796,9.799999979553485
1727706328.3829203,-3.942245907328502e-07,4.2947742234699004e-07,0.7350820883483493,-0.6779781142404891,3.466439513028876e-10,2.2069677769037248e-07,0.18751013629831795,-0.1347910672965061,-0.07929380035320063,9.800002948201074
1727706328.435117,-3.947837469366483e-07,4.275457500651207e-07,0.7331065069741391,-0.6801138503455416,-2.509534269368671e-07,2.3364696509102876e-07,0.2038327172764521,-0.2771499712279098,-0.7947709160778703,9.799995481460249
1727706328.713988,-3.9677412969530046e-07,4.2595229073213967e-07,0.7302295366106024,-0.6832018909964505,2.6216383412773953e-08,2.5196435259634005e-07,0.21174168327857362,-0.07822519747064717,-0.0066573008584239965,9.80000000647469
1727706328.7160468,-3.9135529496258937e-07,4.174087436957754e-07,0.7281499359334113,-0.6854178804202891,-6.556584628297195e-07,2.362005762923501e-07,0.1981013680331364,-0.008224792321087004,-1.9229339524865352,9.80000231438243
1727706328.7196503,-3.859936231033598e-07,4.092099829943836e-07,0.7261996907778727,-0.6874838246197544,-6.36177048381356e-07,2.1619284288748218e-07,0.18512794638734775,0.004099910813354014,-1.9220319992339536,9.800002272973305
1727706328.769056,-3.789453723390324e-07,3.9878632929532546e-07,0.7237909990806057,-0.6900192675930112,-6.110816281951673e-07,1.918255888244713e-07,0.1688399884910366,0.018074704962479083,-1.9210088796633882,9.800002219834886
1727706328.8439035,-3.7374222849603583e-07,3.913293693074331e-07,0.7221210365994127,-0.691766729830437,-5.929005512311568e-07,1.7516293785405292e-07,0.15735945856647462,0.02686847141919148,-1.9203603065911352,9.800002181517808
1727706328.8741112,-3.731752932814492e-07,3.8892017375734593e-07,0.7205616896536656,-0.6933908359671072,7.422897016485207e-07,1.584634593619698e-07,0.14658624577308593,0.04124946035937124,1.7323722090074043,9.80002420590445
1727706328.9057925,-3.8158527197201394e-07,3.959687748364797e-07,0.7191041568922224,-0.6949023035938386,7.202237891219233e-07,1.5121273752904907e-07,0.13677361121369289,0.0306159902944733,1.7323762484069627,9.79999793738375
1727706329.1049058,-3.924132869229311e-07,4.050335947007751e-07,0.7173053716766034,-0.6967589280113831,6.917537769559261e-07,1.4202761945992296e-07,0.12490811140464488,0.01838802569201179,1.7322822739497183,9.799997894987666
1727706329.1234357,-3.9915604995165173e-07,4.104669510677187e-07,0.7160304282530151,-0.6980690695163883,3.567894931055837e-07,1.3931847009789106e-07,0.1240271852403969,-0.0918490432808216,0.8467437538774865,9.79999267688548
1727706329.1910307,-4.0056505666465935e-07,4.1034722780840223e-07,0.7147143855855426,-0.6994164332046762,4.3408599734977876e-08,1.4536369003812929e-07,0.12574544217210537,-0.03367706622034255,8.679125618035367e-05,9.799999874363257
1727706329.4402294,-4.0327290139799974e-07,4.1118715824165975e-07,0.7132021213032682,-0.7009584396868236,4.860318447501943e-08,1.1586672593281126e-07,0.09917489105950546,-0.005142333454420392,0.03281342881988604,9.799998574844262
1727706329.4524524,-4.046027491720886e-07,4.1130818320201156e-07,0.7121611628922867,-0.7020160098370783,1.2884308671672498e-07,1.145796828194391e-07,0.09941718822238181,-0.03698510070423239,0.25424284058338076,9.800001510463362
1727706329.487826,-4.0563788687171504e-07,4.1111643181978465e-07,0.7111106868098368,-0.7030800744613008,3.424901138579236e-08,1.1576956478455788e-07,0.09971395139370315,-0.02716725575519435,-0.0006332275690949568,9.79999995133132
1727706329.5251384,-4.0800987090745934e-07,4.118660736866547e-07,0.7097278166298766,-0.7044759941271611,6.83103381568605e-08,1.1275899547713603e-07,0.09641175488347356,-0.016678752885343526,0.10659013113003037,9.799995190836711
1727706329.5798266,-4.09045910265906e-07,4.117045664961868e-07,0.7087374390999807,-0.7054723541129477,5.9058853444053875e-08,1.0828025685823161e-07,0.08860368089368703,0.07900719304029441,0.0979268605328202,9.800000465854064
1727706329.6146822,-4.0989632362692475e-07,4.1147631512865504e-07,0.7078261481037085,-0.7063866816838561,2.739121155481619e-08,9.999186329813613e-08,0.08575775384686307,-0.021800461938371714,-0.00040307511667564503,9.799999973612133
1727706329.866334,-4.116425141662793e-07,4.122318026470549e-07,0.7070741594926769,-0.7071394013752768,6.444353779064179e-08,7.419900745747462e-08,0.060555483630683825,0.06469083021088147,0.12303793891586641,9.799995926852475
1727706329.876895,-4.124716694933292e-07,4.120970320145097e-07,0.7062466912209538,-0.7079658262508967,2.25761966017338e-08,6.756175958919917e-08,0.05826738054674243,-0.016323103386531715,-0.0003191630501746301,9.799999984302096
1727706329.906739,-4.1306194658616076e-07,4.119741114608811e-07,0.7056277797018936,-0.7085826956062611,2.1890605258641468e-08,6.75726524481709e-08,0.058253914234224935,-0.016798748349628183,-0.0004338352778906573,9.799999986974878
1727706330.0026674,-4.136454197069146e-07,4.1184344148008044e-07,0.7050083473756797,-0.7091990060133136,2.124192337787739e-08,6.762095934421172e-08,0.058253624756142944,-0.01680897152707794,-0.00043547521842049453,9.799999987404764
1727706330.039957,-4.144132060167992e-07,4.1165751467692676e-07,0.7041816008550634,-0.7100199102960837,2.0407588354359354e-08,6.76847355287909e-08,0.05825361843471175,-0.016809194634854484,-0.0004355009212701668,9.799999987909862
1727706330.0720458,-4.1503867365392595e-07,4.1159031107052593e-07,0.7035950776782187,-0.7106011304991285,1.9939216932689386e-08,6.359559593875724e-08,0.05466671700213575,-0.0129997286750112,0.0009690109201888921,9.799999944443268
1727706330.2943847,-4.147366379639049e-07,4.1070252780302683e-07,0.7031836131357218,-0.7110083024951613,-7.065611471595237e-09,3.514056573235789e-08,0.027650976511199223,0.07247358893974246,-0.06641799143346158,9.800003461789943
1727706330.3184252,-4.1526737370633075e-07,4.10815689232301e-07,0.7027994552099671,-0.7113880275603688,2.0476800663166256e-08,3.0926744012789464e-08,0.0274930919934322,-0.008947834381571792,0.0003577068075336041,9.799999961453715
1727706330.3477254,-4.1563701542215826e-07,4.1086525938230486e-07,0.7025057201398812,-0.7116780965931193,1.9657699003812435e-08,3.107088567772458e-08,0.027524694205960848,-0.00783178715222029,-8.709631576384035e-05,9.799999988643819
1727706330.6141813,-4.1455591671527706e-07,4.095238340456145e-07,0.7023106288900264,-0.7118706206522052,-2.7225603232666382e-08,1.4805241463673334e-08,0.011955310918272174,0.043027448046844795,-0.1315821470965737,9.80000619435145
1727706330.6219943,-4.148129157975786e-07,4.0965828337395726e-07,0.7021694373853532,-0.7120098884156009,2.1816261351352687e-08,1.5244022606657035e-08,0.014727829692150253,-0.015100188249635773,-0.003503455120178675,9.800000078550624
1727706330.6623487,-4.1522871405605663e-07,4.098613620127999e-07,0.7019556736853935,-0.7122206344810188,2.164073859167333e-08,1.6226326659227416e-08,0.015036969116930999,-0.004161363739921798,-2.652511970416808e-05,9.799999989018888
1727706330.693908,-4.156492065810385e-07,4.10117474650614e-07,0.7018005081899173,-0.7123735303224235,5.3238513420385586e-08,1.5455069411821894e-08,0.01349064017623146,0.017661779568136693,0.09232166276430744,9.800000519160257
1727706330.723655,-4.159515496921582e-07,4.102804474212727e-07,0.7016619169593301,-0.7125100380265648,2.0095901308717825e-08,1.3812356863508154e-08,0.012906468969492864,-0.0030708727777681213,0.0003087692747710302,9.799999978132416
1727706330.7674286,-4.1608416028904974e-07,4.1027391999929745e-07,0.7015256563705252,-0.7126441983581725,1.966789735199338e-08,9.490578405259347e-09,0.009229635846359757,-0.00172231686345721,-0.000295022649633894,9.800000008067775
1727706330.984934,-4.1575883227365285e-07,4.0989892901038813e-07,0.701499092307346,-0.7126703469989673,1.0529457128567614e-09,-2.3528901301590185e-09,-0.002110087235256334,0.034326879996469745,-0.049474361426083024,9.800002422943683
1727706331.0031445,-4.1593327108747516e-07,4.1013547665971367e-07,0.7015305029205751,-0.7126394273906431,2.0162425452283594e-08,-5.0742014558979534e-09,-0.0030369562810501805,0.0015380678508279417,-3.613272530819824e-05,9.799999996663518
1727706331.0467763,-4.161678639560012e-07,4.1045922248057825e-07,0.701574048931479,-0.7125965575734624,1.9419226991854722e-08,-5.074900832320098e-09,-0.0030571796404483403,0.0008222212319236662,1.011671579864242e-05,9.79999999059858
1727706331.1241722,-4.1545777220975586e-07,4.098184111660382e-07,0.7015878033607524,-0.7125830156375421,-9.910508943323344e-09,-1.883815101567806e-09,-7.573474545625332e-05,-0.009002378667964136,-0.0870119226330584,9.800003855483421
1727706331.1544724,-4.1564984125758764e-07,4.100353259712287e-07,0.7015862598430825,-0.7125845353353197,2.0680739114547205e-08,-1.1473305635887409e-09,0.00017065505108595233,-0.00023804027670572438,-0.0002568527449503283,9.800000001564026
1727706331.1852071,-4.0852449747373675e-07,4.030311375314583e-07,0.7015855893540289,-0.7125851954752009,-6.594014775878574e-07,-5.520563941456627e-10,9.963336779124146e-06,-0.0008113114865308213,-1.9218723948362735,9.80000233252906
1727706331.366889,-3.993515750602483e-07,3.940171623931307e-07,0.7015872300749818,-0.7125835800770318,-6.333353045641588e-07,-7.589460298590683e-10,-0.00018788082999739888,-0.0008378752666302904,-1.92164756336555,9.800002277848304
1727706331.3748426,-3.9270965155945677e-07,3.874923219858263e-07,0.701590219349883,-0.7125806369192744,-6.144630390333636e-07,-8.930421929424532e-10,-0.00032446134868469896,-0.0008773569748271499,-1.9214786479574777,9.800002238245325
1727706331.4101784,-3.8626491103159443e-07,3.811627017482699e-07,0.7015945992097262,-0.7125763245852678,-5.961495115925807e-07,-1.0107981805722688e-09,-0.0004513658645501436,-0.0009315856728188718,-1.9213094787522935,9.80000219987146
1727706331.6709359,-3.863744101460593e-07,3.8130525740208656e-07,0.7015952522209076,-0.7125756816372464,1.0270708530609934e-07,-1.2265674849774479e-09,-2.9549841376513205e-06,-0.00010875344715551076,-0.002543018851535275,9.800000089186788
1727706331.682818,-3.8744698360027e-07,3.8238647761177484e-07,0.7015952561935497,-0.7125756777258195,1.0055358253018608e-07,-1.183110270659782e-09,-6.352692268718559e-08,-2.3055285727011058e-06,3.258453829758012e-06,9.799999976030504
1727706331.7113132,-3.884882349148226e-07,3.834360905981665e-07,0.7015952562786752,-0.7125756776420044,9.756950551630984e-08,-1.1480206012346652e-09,-1.3589153938080257e-09,-3.621133767050963e-08,1.0696191380531865e-05,9.799999976420033
1727706331.752566,-3.898286282671353e-07,3.8478724920740334e-07,0.7015952562805244,-0.7125756776401824,9.372497785586681e-08,-1.1027551779416798e-09,-8.120941758608127e-12,1.346574594973591e-08,1.0759497362990899e-05,9.799999977350945
1727706331.8126192,-3.9079914896187824e-07,3.857655650777988e-07,0.7015952562805351,-0.7125756776401708,9.094208307196956e-08,-1.0701063875069053e-09,-2.277735559653919e-13,1.4059083057376247e-08,1.0785835297403844e-05,9.799999978036276
1727706331.8508732,-3.9161272693240946e-07,3.868515122690485e-07,0.7021802317149074,-0.7119992431094965,8.84872481996459e-08,-7.363850048004954e-08,-0.08147118492938031,0.37123672164547417,0.05037355398834724,9.799999921398495
1727706332.0875585,-3.919259573584873e-07,3.8838531236004055e-07,0.7035928696923565,-0.710603316708957,8.57963023354986e-08,-1.5909469570316405e-07,-0.15725406467252198,0.3456789940015275,0.042805235237616666,9.79999993041548
1727706332.0920427,-3.9169129956713333e-07,3.9105491962280924e-07,0.7063769575736523,-0.7078358523052389,8.359334234471138e-08,-2.2665720263855512e-07,-0.20363380720377597,0.018589163247103566,-0.0030511448484258747,9.7999999684897
1727706332.1137624,-3.9133784890538334e-07,3.931438043091365e-07,0.7085402618918093,-0.7056703885511836,8.100791263156732e-08,-2.2845284612642333e-07,-0.20411085541267876,0.0012070340993662865,-0.0057680036511628275,9.799999986772045
1727706332.2266073,-3.909487408044805e-07,3.9520899653327343e-07,0.7106975586598167,-0.7034976759838424,7.858757942564076e-08,-2.2891085303219146e-07,-0.20412105410625697,0.0008354087158811587,-0.005821753564861808,9.799999987554072
1727706332.2718248,-3.903784389670478e-07,3.9792450796149097e-07,0.7135636049577231,-0.7005904521754688,7.547140853879706e-08,-2.294632485584518e-07,-0.20412127558156376,0.0008273393656268506,-0.005822879674240435,9.799999988306874
1727706332.297864,-3.8978602539202694e-07,4.000318485848211e-07,0.7161786204929732,-0.6979170319948279,7.205512254899542e-08,-2.908785923131067e-07,-0.27140040384385217,0.30847014818007745,0.026252026450064973,9.799999951869315
1727706332.4942033,-3.887547530888863e-07,4.0250792126755526e-07,0.7194709162733715,-0.6945225702858349,6.99532854812421e-08,-3.653924058731189e-07,-0.3371800121560907,0.3091720455014928,0.016987297625217283,9.79999996345089
1727706332.5134504,-3.8682362150653123e-07,4.064818761209114e-07,0.7247558451030724,-0.6890057800836045,7.699684075133949e-08,-4.4440913409043673e-07,-0.39601672824333284,0.0620780231808411,-0.0005531998036995628,9.79999968741197
1727706332.5424178,-3.8509404818791604e-07,4.0958673325197135e-07,0.7288581844453107,-0.6846646967434273,7.021239679355851e-08,-4.507086558937938e-07,-0.3985715531244623,0.0067013168108935,-0.021547779784081473,9.800000003017226
1727706332.816134,-3.832958150781707e-07,4.126380092933875e-07,0.7330143053869512,-0.6802132225249433,6.269155322232255e-08,-4.620753503008344e-07,-0.4206351399905534,0.31055379111555836,0.002264546902722037,9.799999902177074
1727706332.8177109,-3.8562716697967575e-07,4.206499839674148e-07,0.7374375982223993,-0.6754152713165831,7.126514794577038e-07,-4.941456085308534e-07,-0.4275630795089591,-0.09959494622248725,1.7673813080692522,9.799997837490432
1727706332.8527653,-3.9122818697427543e-07,4.341045881095607e-07,0.7429440063989065,-0.6693535712578218,6.501084827572521e-07,-4.741955711268309e-07,-0.3995470539502031,-0.04808141369245919,1.6809457079240653,9.79999722053187
1727706332.8901315,-3.9277755107374625e-07,4.4116910131047267e-07,0.746834718171435,-0.665009701984448,6.372595385669666e-07,-4.6120059900378897e-07,-0.3837370582059589,-0.03555878694117694,1.6839874445125709,9.800007895745424
1727706332.9366014,-3.950876711062857e-07,4.489934258221295e-07,0.7504567052519899,-0.6609196120119074,3.1611465269508427e-07,-4.3447112237187207e-07,-0.34713449644013,-0.22263496188416937,0.8212902540215871,9.79999476800118
1727706332.9809465,-3.8598671501288853e-07,4.446594837077096e-07,0.7546144403716608,-0.6561684588443872,-6.900609560216503e-07,-3.720457296459962e-07,-0.3076076477425016,-0.022792419932227925,-1.9550554570209375,9.800002439179165
1727706333.2148287,-3.8156194640085406e-07,4.437096435935734e-07,0.7575270497727874,-0.6528037751592697,6.361576274602768e-07,-3.46415222662171e-07,-0.2912199198766709,-0.05112039002265834,1.6669005914297437,9.800023944699923
1727706333.2211132,-3.815423787125735e-07,4.478372831408616e-07,0.760604445838101,-0.6492155858965256,1.6330749784297865e-07,-3.81794303399945e-07,-0.3295540118593105,0.24346922064811663,0.4205524175553212,9.79999917350735
1727706333.258752,-3.821106218859443e-07,4.547812647436609e-07,0.7650715783290815,-0.6439452461449617,1.605060933850523e-07,-4.294380309485682e-07,-0.36541590218509057,0.2538873349998617,0.4379978176820226,9.799999165739404
1727706333.3407452,-3.812477798149379e-07,4.5914953520049507e-07,0.7688524480513887,-0.6394262374387136,2.5143304609259304e-07,-4.812703818417631e-07,-0.4040235386637608,0.19868805385818214,0.6868815318626179,9.800001125149477
1727706333.3697932,-3.7916773071438933e-07,4.625920697460695e-07,0.7728590195483235,-0.634577761903493,1.0284029660536996e-08,-5.103987045651959e-07,-0.4220375713832421,0.10269456901296788,0.013749697990182764,9.799999214478099
1727706333.4060347,-3.7737096567019084e-07,4.6659267519690203e-07,0.776945061433383,-0.6295684009811137,1.4534810216862093e-07,-5.283887816907868e-07,-0.43779898969228226,0.15795158513318633,0.3996364724906885,9.799997524470989
1727706333.619171,-3.751451204601061e-07,4.724986278883895e-07,0.7824469415018853,-0.622717258259301,6.110135341978677e-07,-5.342201659689939e-07,-0.4355344593728838,0.002970944232059446,1.6742031719145505,9.800010108808545
1727706333.6213982,-3.7515064584187444e-07,4.790836194312694e-07,0.7865597908525501,-0.6175141256794228,2.6419953700919683e-07,-5.503312278494524e-07,-0.4507522409920238,0.21800856573275443,0.7759377345263293,9.799999480951485
1727706333.6392176,-3.732507218582595e-07,4.837093046712128e-07,0.7909153148987644,-0.6119256202008663,9.686217938416356e-08,-5.927952928236988e-07,-0.4836071508686949,0.2707545505849297,0.3285487038415677,9.799998089761246
1727706333.9615498,-3.660504391818331e-07,4.844005946458878e-07,0.7968517432908104,-0.6041748912475821,-7.280609838862156e-07,-6.04617636593473e-07,-0.4851950233031306,0.06769435634569541,-1.9877114515487195,9.799988516431696
1727706333.9630032,-3.5604761573535143e-07,4.785401628281713e-07,0.8011373769564668,-0.5984804952903279,-7.065451056121563e-07,-5.734665135010823e-07,-0.4700290771187006,0.03280907738846104,-1.9846230940712537,9.800002508529472
1727706333.9820035,-3.465774714533852e-07,4.7285454351264103e-07,0.805238923598056,-0.5929504835332375,-6.51316148337884e-07,-5.419084633756023e-07,-0.452568095712876,-0.024758143605397128,-1.8894908749413906,9.800003027099468
1727706334.025903,-3.360732689061399e-07,4.6728912740902385e-07,0.8104153727624833,-0.585855719089533,-2.5330973675938153e-07,-5.040337535444315e-07,-0.44037063062466897,0.14707345809511146,-0.8235960312445978,9.800007875717805
1727706334.0930583,-3.315465059339133e-07,4.676585929672797e-07,0.8144686270309018,-0.5802075969703163,-1.1442190807494688e-07,-5.395618764005861e-07,-0.4774615465422489,0.22749018744770771,-0.4505894600035513,9.80000099896396
1727706334.120393,-3.2742627823689946e-07,4.691515249677056e-07,0.8188687447192541,-0.5739808175554176,-2.5041378692668605e-08,-5.904371206105652e-07,-0.5256890906578511,0.2828336353503146,-0.21425703522598624,9.800001777185912
1727706334.345353,-3.2286964802790367e-07,4.707269123369719e-07,0.8236352593264804,-0.5671198811484883,-9.487463226579719e-08,-6.447428894214714e-07,-0.5720699784200461,0.23051388729105712,-0.43222401021553525,9.800000422810696
1727706334.350114,-3.184362739104811e-07,4.748227699774879e-07,0.8290381195462528,-0.5591920925217793,4.3184486038553354e-08,-5.090790329452834e-07,-0.42425962411678303,-0.5067542371576542,-0.11826650626422308,9.800000128264202
1727706334.378998,-3.160060454268433e-07,4.772302252773392e-07,0.8319652913201457,-0.5548276795891289,4.2115563152614176e-08,-3.819621748449968e-07,-0.31338263222834983,-0.5103566558603618,-0.09803469522363607,9.800000105620086
1727706334.4081898,-3.143562113854967e-07,4.790822476795792e-07,0.8339536006517922,-0.5518345693770759,4.120947194793339e-08,-2.5474328950801297e-07,-0.20279024672972362,-0.509099132814755,-0.08301212488691001,9.80000008930925
1727706334.5183575,-3.1297872903134015e-07,4.809768769036322e-07,0.8361885599268056,-0.5484420591522914,4.0163375164220284e-08,-2.5683754326297053e-07,-0.23813055485295415,0.3220471116576031,0.03156364952334679,9.799999951903771
1727706334.5565517,-3.114653827625927e-07,4.826769524065561e-07,0.838502956541548,-0.5448970470380186,3.87292184590792e-08,-3.3403432924337635e-07,-0.3041934423266585,0.31322197960399223,0.021828790701953774,9.799999963875008
1727706334.7712305,-3.094472112848302e-07,4.846672104641178e-07,0.8413367157869287,-0.5405113603510421,3.738239862357573e-08,-4.106320885469587e-07,-0.37005882141088364,0.3150058427842167,0.011537865207723512,9.799999976010245
1727706334.775414,-3.048524904541129e-07,4.858000121748599e-07,0.845691901069828,-0.5336714424293014,9.48692876741647e-10,-4.78815120552639e-07,-0.42136949579523797,0.09461513353766693,-0.13687155715628707,9.800002224542148
1727706334.7999966,-3.0209966143358375e-07,4.882579344133374e-07,0.8490742339966536,-0.5282735514510131,4.458639666285728e-08,-4.876590593044978e-07,-0.4252554352186806,0.009001559643884924,-0.026450794135503847,9.800000061113872
1727706335.0749528,-2.9933905265879023e-07,4.907549599343123e-07,0.852428259809654,-0.5228442042114978,4.390272622456194e-08,-4.887616213362419e-07,-0.42548887143841496,0.003912722608568305,-0.025321754727228307,9.80000001971819
1727706335.0788507,-3.0161141755731477e-07,5.014790773345717e-07,0.8556315003935089,-0.51758548620881,6.818778252957277e-07,-4.752857736011953e-07,-0.4030537767096461,-0.09184189300187301,1.7723515998603647,9.799997787826825
1727706335.1117964,-3.0427118622164446e-07,5.150069342447867e-07,0.8595991768133684,-0.5109689376287188,6.209762264067453e-07,-4.550559602427388e-07,-0.37658291920321246,-0.043030260123870186,1.6852508677957418,9.799997858178534
1727706335.1498456,-3.059948245138514e-07,5.246018345060882e-07,0.8623838575749052,-0.5062549576980524,6.024567709906217e-07,-4.4200298854225e-07,-0.3592480239279859,-0.024576037547742794,1.688412697458877,9.79999782726909
1727706335.1791286,-3.0576254425335335e-07,5.306145267400891e-07,0.8648669596847345,-0.5020011374940385,2.0841168904663995e-07,-3.933125210074992e-07,-0.3059441262606005,-0.2618059267419336,0.6085258750382966,9.799997766912584
1727706335.2642305,-3.0404462188233685e-07,5.344642833204173e-07,0.867428525173724,-0.49756180893890967,-1.0245784220778715e-07,-3.0050984283508623e-07,-0.24080020850323597,0.013492852482264537,-0.18272141790892008,9.799993880091355
1727706335.517895,-3.0177569642912457e-07,5.350185037558781e-07,0.8692123475527909,-0.49443896980455415,-3.990057869579415e-08,-2.965181095029051e-07,-0.23963675259713024,0.05400545220506954,-0.008481205431489346,9.800000038077664
1727706335.5203705,-3.0285473754431377e-07,5.413553057835458e-07,0.870831336454331,-0.49158191936723905,2.107247679204243e-07,-2.6464953003110355e-07,-0.20069479475839605,-0.23884788696531944,0.6755278560216252,9.799995138986503
1727706335.5383584,-3.019483801466923e-07,5.442678264106282e-07,0.8724429989514226,-0.48871588226725393,-5.106595649261233e-08,-1.9397874338020385e-07,-0.15429379306129876,0.01781601785795339,0.009616413149488814,9.799999277579914
1727706335.5687973,-3.002830323665899e-07,5.442487178151091e-07,0.873567142307137,-0.4867036550930719,-5.541117765811548e-08,-1.9156154862641343e-07,-0.1535876979129421,0.04282619128685534,-0.0032596856589727483,9.800000012127398
1727706335.6518915,-2.99358009226901e-07,5.455208260346988e-07,0.8746582277979611,-0.4847401206264472,-1.975715899677586e-08,-1.845452977426015e-07,-0.14714672081583308,0.023425269075077984,0.09603023380015249,9.799995431025094
1727706335.6923995,-2.9842657622465445e-07,5.466916819901795e-07,0.8756773923389688,-0.4828965774842848,2.1984712632962232e-07,-1.7200456149676567e-07,-0.1278870553412348,-0.2205924485341845,0.7242139004468027,9.800004494780083
1727706335.913059,-2.967465199578428e-07,5.467560251381525e-07,0.8768170476022845,-0.4808241518826045,-5.6439852564532776e-08,-1.458007027639235e-07,-0.11730073283512812,0.032914710646533944,-0.0016950761301162236,9.799999990555436
1727706335.9174366,-2.950614727187727e-07,5.453648865829586e-07,0.877290747787787,-0.47995931478153514,-9.140267480841152e-08,-6.778144010451959e-08,-0.05177367953426161,-0.09915857882209642,-0.12289602765927614,9.80000278268186
1727706335.9286954,-2.89377304190824e-07,5.35856432590989e-07,0.8776477772966488,-0.4793061433007937,-7.306990243901684e-07,-5.722612323843184e-08,-0.04856913051313531,-0.0027302773442042,-1.9246842031940663,9.800002489767246
1727706336.2250097,-2.852504096331243e-07,5.297112128371349e-07,0.8783700123962084,-0.4779812980888712,-2.1116383604618628e-07,-1.1137679038253229e-07,-0.10497416760513424,0.3022816559553724,-0.49977616047015233,9.80000098333593
1727706336.2263992,-2.7944183981716516e-07,5.208912686172821e-07,0.8790887543881108,-0.47665811847487694,-6.947268207539997e-07,-1.1589993095797034e-07,-0.09813182559306347,-0.0151346408323712,-1.928465040179846,9.800002418508527
1727706336.2518928,-2.7914603144979976e-07,5.223809159947227e-07,0.8799508429296103,-0.47506474719465086,6.336846513933822e-07,-1.4592690092307418e-07,-0.12277138813791533,-0.025957221328927697,1.7213112911185544,9.800012723809315
1727706336.2933931,-2.8062612234314407e-07,5.283890306997028e-07,0.8813089243560929,-0.4725405589470056,1.5676982870749825e-07,-1.8929613880814027e-07,-0.16795045277604118,0.2647526774639444,0.48190956045370903,9.799999086697934
1727706336.3261797,-2.781445159237263e-07,5.273346528730273e-07,0.8827997204707398,-0.4697495647006265,-1.7360988701617186e-07,-2.628536419148386e-07,-0.22992294820465276,0.29867590449450854,-0.4381821772109327,9.800000307765327
1727706336.396464,-2.7381222081090783e-07,5.238852644364207e-07,0.8846052644678786,-0.4663405687642511,-6.954431713669176e-07,-3.122137077329821e-07,-0.2589738225316587,-0.029976750537724937,-1.948521998827268,9.799991504614411
1727706336.4259245,-2.6943614725378797e-07,5.205378493294811e-07,0.886502633609306,-0.4627235466273796,-1.653413511872168e-07,-3.2778446263372477e-07,-0.2883380489156845,0.2722171197566096,-0.4807424925110265,9.800002020547645
1727706336.6418958,-2.633062397577567e-07,5.163178426143824e-07,0.8893333643995653,-0.4572594088320262,-1.5281720483292014e-07,-3.615669701408477e-07,-0.3189441632106656,0.21240802132489903,-0.49410541883952636,9.800004211931666
1727706336.6640148,-2.6024214183761123e-07,5.166957884030404e-07,0.8917386647485264,-0.45255071957978393,-8.375568993658575e-08,-4.183405246843241e-07,-0.37019260283757977,0.25636743565070425,-0.312108042663051,9.79999886036001
1727706336.6927946,-2.5727929311354203e-07,5.181355656935845e-07,0.894336757514947,-0.44739441677038844,2.984868572999267e-08,-4.4788457123110243e-07,-0.3875381648776449,0.04931642349197739,-0.03269366357350495,9.800000360376274
1727706336.7377715,-2.5377390023387637e-07,5.211977479582015e-07,0.8977701389829851,-0.44046427499870594,4.23298666907449e-08,-4.476829496812965e-07,-0.3851548865160449,0.015348685633122562,0.0037466190171717663,9.799999547650204
1727706336.7700546,-2.5097601636349237e-07,5.231254034188151e-07,0.9002973090980381,-0.4352754934871651,3.197070046364073e-08,-4.470893325623801e-07,-0.3846972799521328,0.02544324040989529,-0.020291917530189517,9.800000007899113
1727706336.8015213,-2.4767386513073735e-07,5.241346517880373e-07,0.9028687094109022,-0.42991637973721775,2.3578030923286378e-08,-4.615605830894073e-07,-0.39832378908915067,0.04388617354879596,-0.045795153072926004,9.800000622908769
1727706337.040067,-2.4783607756065173e-07,5.353067836831028e-07,0.906179038758522,-0.42289425358395777,6.375665011934581e-07,-4.4987229469331193e-07,-0.37822687596907445,-0.049931759232841856,1.684905865754468,9.79999720187898
1727706337.0694356,-2.484492760777115e-07,5.44607882527995e-07,0.9084763093573436,-0.4179363532119477,4.813947938272105e-07,-4.3340966619619313e-07,-0.35392298164826375,-0.12597871529012922,1.2953993471287093,9.799995609085123
1727706337.1038892,-2.4719786487378217e-07,5.491864997872681e-07,0.9104017595966363,-0.413725314820094,2.1336172698389279e-07,-3.605966104292909e-07,-0.28482447343721096,-0.28254501072138916,0.5679292489795886,9.799999032498974
1727706337.3683858,-2.424880408664616e-07,5.446777092532839e-07,0.9119811229818955,-0.4102321675884585,-7.058139191577351e-07,-3.0391498461254437e-07,-0.25019387307171775,-0.028916362766060872,-1.9473498858579805,9.800002463139066
1727706337.3813577,-2.3426188031095334e-07,5.332888522684176e-07,0.9139146908713547,-0.4059063165425943,-6.77883256586901e-07,-2.703921524060898e-07,-0.22901197426139508,-0.04935092297031916,-1.9444706322890324,9.800002401321779
1727706337.411304,-2.308568787062574e-07,5.301106153495119e-07,0.9150539533436243,-0.40333145484808125,-2.0973475130652597e-07,-2.0342253073407102e-07,-0.16333782139492203,-0.33530970211900657,-0.7158064925656263,9.800001509437259
1727706337.4436202,-2.286045371073807e-07,5.279563864869241e-07,0.9157475022748358,-0.40175429316569655,-1.8612214491005132e-07,-1.1766466944832729e-07,-0.09100614665350076,-0.32866027409694043,-0.6613977688699181,9.800000875644125
1727706337.4949129,-2.2679179562648543e-07,5.253606893698177e-07,0.916030122217197,-0.4011094803048411,-9.607725472998533e-08,-1.4183001598014858e-08,-0.00616640058366215,-0.22476666399778347,-0.41574269982540213,9.800001935404723
1727706337.5273528,-2.3076118212576047e-07,5.344566254034903e-07,0.9160648940686262,-0.4010300610361989,6.549572893413776e-07,-3.983279466644317e-09,-0.005591817928409408,-0.001122673841346087,1.7306153503198098,9.799997853888994
1727706337.7671335,-2.33581819250667e-07,5.408907077123436e-07,0.916037905847605,-0.4010917040403445,2.5209320652188465e-07,1.292941030968741e-08,0.01800049213683004,-0.23929283534000018,0.6312122441098799,9.79999426223948
1727706337.79308,-2.346993215012949e-07,5.42092761804908e-07,0.9156338201313794,-0.4020133174799904,9.421394159245865e-09,6.95188604314414e-08,0.05615528918523936,-0.0194261963267018,0.0032903325811286283,9.799999747823366
1727706337.8247051,-2.3525167892891164e-07,5.419674066000216e-07,0.9152928205553461,-0.4027890920065857,7.162562132910658e-09,7.053287660524727e-08,0.05653441064720303,-0.0057621610620043826,-0.0004546250081009799,9.799999998302054
1727706337.8556302,-2.3585421024546118e-07,5.419352466067903e-07,0.9149363217133999,-0.4035982249827231,9.528907893329246e-09,7.471587821049898e-08,0.06058833192875058,-0.018099969643108976,0.005419731876019121,9.799999659649064
1727706337.8908968,-2.3643672785948553e-07,5.417862716297238e-07,0.9145673498277567,-0.4044336319208433,6.576344198180313e-09,7.559453772561855e-08,0.0609192020529912,-0.006180907587846783,-0.0005145617885775366,9.799999998249453
1727706337.926615,-2.376483977280535e-07,5.423182475497711e-07,0.9139569917622888,-0.4058110609735481,7.782175367643616e-09,1.0053281190017407e-07,0.08241479569043429,-0.02534170196808762,0.004855043036126235,9.799999638102795
1727706338.1632833,-2.3559456996258863e-07,5.357566718289842e-07,0.9134645324631971,-0.40691835536314913,-6.818141950534917e-07,9.833177430256293e-08,0.0788398122729396,0.017443482822453768,-1.919286794875715,9.80000238161361
1727706338.1927266,-2.3409633181356495e-07,5.307620497677328e-07,0.913147837342738,-0.4076285406542874,-1.9800613025364825e-07,5.30145935037478e-08,0.030451699699718934,0.30705824898335865,-0.5798740999309365,9.800001918886283
1727706338.238095,-2.3278432624403672e-07,5.276921135356939e-07,0.9133421944510233,-0.40719287301603946,-1.4161861908560696e-07,-4.8218314563963274e-08,-0.054541273319080104,0.2693409123036457,-0.4482294454456108,9.800001061527139
1727706338.4734118,-2.3193464106901028e-07,5.272634640872157e-07,0.9139397670054523,-0.4058498518980728,-4.471247711702057e-08,-1.2382227807038893e-07,-0.12127574523529241,0.30749486990975355,-0.1829980923793673,9.799998612473276
1727706338.4904978,-2.3075031058913435e-07,5.2740479844368e-07,0.9148151570775278,-0.40387278737355714,3.3217765898133334e-08,-1.671513431077797e-07,-0.14721771099447398,0.02347569081808389,-0.01152224607796995,9.800000515318866
1727706338.5332468,-2.2951062972797892e-07,5.287507911522432e-07,0.9160049165661999,-0.40116703855902336,3.5993582565711776e-08,-1.6922645927482694e-07,-0.14784531287872185,0.000570759434001796,-0.003034405207151363,9.799999996146367
1727706338.5617113,-2.285678363246965e-07,5.297443018717404e-07,0.9168923429428091,-0.39913460317606314,3.491446953877322e-08,-1.6943255853717992e-07,-0.14784897812630515,0.00043718035736313964,-0.0030489318939894037,9.799999996241468
1727706338.6246908,-2.2761493189563176e-07,5.307217981021064e-07,0.9177752624861277,-0.39710019839857286,3.386614272504014e-08,-1.6962230703179665e-07,-0.14784905648342764,0.0004343246391935358,-0.0030493187594429227,9.799999996453105
1727706338.6570675,-2.26480184743878e-07,5.317480022277629e-07,0.9189367744355927,-0.39440487394246865,3.2149633650648556e-08,-2.371583918274338e-07,-0.21899763226786712,0.3250312518658109,0.034489212836177195,9.799999950835298
1727706338.8783002,-2.2682329857741295e-07,5.394536537976865e-07,0.9207902465692033,-0.3900581005730851,6.825885781279605e-07,-2.7131682354064174e-07,-0.22877131312131882,-0.09529885222134372,1.7997699034160857,9.7999977573088
1727706338.8875792,-2.266010556560962e-07,5.442291844436089e-07,0.9222148915322126,-0.3866777648583917,1.6801718474434026e-07,-2.9573911455218124e-07,-0.25896665313334183,0.22447689367981288,0.45141672826438933,9.799998463678723
1727706338.9204643,-2.2523811051936407e-07,5.472715408985264e-07,0.9238842550579167,-0.38267203092952584,1.4854990188508916e-07,-3.5136393675862714e-07,-0.304402420109568,0.2311103969276979,0.4050436182964986,9.799999464337064
1727706338.9658618,-2.2313691457213592e-07,5.524176065193175e-07,0.9264573910245407,-0.3763996580971427,3.427806732798411e-07,-4.196646924955023e-07,-0.35415135101593914,0.10797363771752616,0.9341745514076264,9.800002651346086
1727706338.9941282,-2.2086109165026065e-07,5.556335325407994e-07,0.9285743956869379,-0.3711463211110687,6.242290181680192e-08,-4.6094735488383133e-07,-0.38706074136312474,0.1441933009853775,0.17444491084813138,9.799997815737376
1727706339.025913,-2.1518246932422498e-07,5.508121227569552e-07,0.9306900228877668,-0.3658088042910097,-6.611766070981721e-07,-4.532959625894359e-07,-0.37557291411929633,-0.05977939056286855,-1.8745150745183015,9.800002349971642
1727706339.2394981,-2.087919770959112e-07,5.465064842228478e-07,0.9334384825723003,-0.3587375074518684,1.7365463491128704e-08,-4.603933680193114e-07,-0.4050049579239951,0.32310585863842495,0.0052898931745106615,9.799999988657497
1727706339.2699018,-2.0479770537608201e-07,5.464137771982381e-07,0.9357748530245233,-0.3525981061301824,-1.199113724727571e-07,-5.206599154149477e-07,-0.4531723207735219,0.22697701513862928,-0.40308548368274066,9.80000027082429
1727706339.3006282,-2.0032934515680163e-07,5.461483932578423e-07,0.9383043599505405,-0.3458105378635357,-1.2004076137300056e-07,-5.709909009391041e-07,-0.4977479293173874,0.22014624025334428,-0.4237201910881525,9.800000517344108
1727706339.546097,-1.9588170924174782e-07,5.469575725863028e-07,0.9410076360558499,-0.33838532604745725,2.5440997071883727e-08,-6.196129011110499e-07,-0.5448688928167218,0.3134502982837639,-0.025881279342281585,9.80000173921334
1727706339.5610986,-1.8978025113165667e-07,5.497802563945992e-07,0.9449424321922549,-0.32723661140258653,3.706251845208767e-08,-7.040664681574504e-07,-0.6071119606096645,0.07977894186945032,-0.04122762045490638,9.800000026491263
1727706339.5921724,-1.849112233735772e-07,5.520243918875747e-07,0.9478959708916351,-0.31858001878188363,3.608706327515054e-08,-7.116012267139835e-07,-0.6102468745129936,0.011710814697329765,-0.051547312798661385,9.800000052614944
1727706339.6212385,-1.799981057647869e-07,5.542151091643101e-07,0.9507731492994183,-0.3098877515664771,3.4993372152984606e-08,-7.126421105164377e-07,-0.6104353862797172,0.007617122993720392,-0.05212886605250888,9.800000053555712
1727706339.6929193,-1.7340127332719497e-07,5.570444191121753e-07,0.9544855882419002,-0.2982570398803239,3.355518163374773e-08,-7.134743728283521e-07,-0.6104471613336921,0.007361259105746043,-0.05216457927068366,9.800000053922274
1727706339.722066,-1.6821212771112083e-07,5.589952787785517e-07,0.9573662365050947,-0.2888769447355225,2.7023871476961658e-08,-7.76343254010996e-07,-0.6758432796406273,0.31046376226685857,-0.04421936684110506,9.800000187726587
1727706339.926801,-1.6262727661352874e-07,5.612947640006725e-07,0.9603328197875682,-0.27885637026705373,1.848967216979014e-08,-8.203159063180075e-07,-0.7127184986568386,0.3171856463686245,-0.07550257891105022,9.79999964395904
1727706339.9457192,-1.5444160521638407e-07,5.644263145715956e-07,0.9644819322331313,-0.264148826223973,7.646166617252046e-08,-9.168309214212569e-07,-0.7880456219438554,0.16342237279834,0.03850016030760972,9.800000568595008
1727706339.9823518,-1.478611423680241e-07,5.668451690236292e-07,0.9675582106276919,-0.2526481922488197,3.854241425704837e-08,-9.327089761260965e-07,-0.7946671203413329,0.021608333879854762,-0.08564475612202666,9.800000059073495
1727706340.0064442,-1.4119606801518534e-07,5.691225753479464e-07,0.9705021936028337,-0.24109228982226727,3.6867700834370526e-08,-9.344304831179057e-07,-0.795065594044892,0.012986380398925858,-0.0884039171161632,9.800000095790894
1727706340.0366075,-1.3449268932858213e-07,5.713048724087315e-07,0.9733084422665773,-0.22950092856514537,3.570956982518513e-08,-9.352954883970087e-07,-0.7950895588493746,0.012466479352660556,-0.08849887092910964,9.80000009664841
1727706340.0767841,-1.2540427501550088e-07,5.738611321721849e-07,0.9769050095702156,-0.2136740561609457,1.2304976847795352e-08,-9.733687577778667e-07,-0.8389218022082405,0.3206690153538828,-0.1216667127786682,9.800000138744425
1727706340.293838,-1.1884561553721231e-07,5.792750804699592e-07,0.9795643199010525,-0.2011311591386038,6.694493612464304e-07,-1.0096949862370088e-06,-0.8516673764181113,-0.10484420605487461,1.6372322301232114,9.80001036999432
1727706340.3257484,-1.1331664231082367e-07,5.904093353499466e-07,0.9820120005420525,-0.1888185128398015,6.494253485401468e-07,-1.003002678618429e-06,-0.8296244539781052,-0.057266918418288716,1.6468706699961198,9.799997888980359
1727706340.4081244,-1.0570066334074449e-07,6.046900556049053e-07,0.9849485287299435,-0.1728478977377011,6.235461269844698e-07,-9.93152447707071e-07,-0.8014799750695161,0.0025472072025670197,1.65877043058352,9.799997837803113
1727706340.6724687,-9.956257514460911e-08,6.129936299017421e-07,0.986895415263072,-0.16136120764403994,5.74138629697294e-07,-9.630162455794064e-07,-0.7671407278588807,0.05352189770108879,1.5799297283688942,9.800003027543875
1727706340.67486,-9.366311601057169e-08,6.224747113571798e-07,0.9886634875195273,-0.15014828818647824,5.56782780629475e-07,-9.586610448199774e-07,-0.751655496308248,0.09178403736905046,1.5860917525003695,9.799997890644889
1727706340.702257,-8.461183964324562e-08,6.26960764470357e-07,0.9907585338548779,-0.13563748594445635,-4.465120210703165e-08,-9.341871678383176e-07,-0.7262041931483769,0.1646771084763514,-0.03092559808615622,9.79999917712858
1727706340.7281754,-7.749431966707978e-08,6.271226201903498e-07,0.9921731762945891,-0.12486948482758675,-5.0420612571709726e-08,-9.278143418575936e-07,-0.7230305131727928,0.18193393539061245,-0.04642958401422373,9.800000081734842
1727706340.8132656,-7.052151176954489e-08,6.283916966877294e-07,0.9934756460952107,-0.11404446771020466,-3.937034978816512e-08,-9.330048577110441e-07,-0.726976113650206,0.1967506481170054,-0.012859756314886154,9.799999473811221
1727706340.8500953,-6.354036959460126e-08,6.297244991699598e-07,0.9946519097264384,-0.10328397008804574,2.0664747853092274e-07,-9.223694811112726e-07,-0.7134125037993322,0.030818356514691024,0.6471770717857429,9.800004229920757
1727706341.082814,-5.458239492081656e-08,6.328751047509657e-07,0.9960077531400702,-0.08926676696545621,5.435647330880845e-07,-9.005490899188903e-07,-0.6992455095511754,0.1242057716343249,1.6046019951697352,9.800009818030194
1727706341.0858686,-4.843883316830913e-08,6.414336481687383e-07,0.9968779115608535,-0.07895840323649556,5.270949455709869e-07,-8.9518254882689e-07,-0.6849485727198561,0.15756704579646344,1.609753799429896,9.799997821563359
1727706341.1165838,-4.2096723401945784e-08,6.467694027035003e-07,0.9976083627678036,-0.06911985630282075,2.596208913016565e-07,-8.563480328018278e-07,-0.6416866899305516,0.0015727136407358343,0.8910989852929161,9.799997221879837
1727706341.1554224,-3.409371146496526e-08,6.510000046016981e-07,0.9983589753265905,-0.05726566496964125,1.0753978816246507e-07,-7.591577220514506e-07,-0.5609274532625602,-0.08715565020300278,0.5057487651024405,9.799998716374727
1727706341.1882808,-2.859717347061907e-08,6.507152944925092e-07,0.9987816413485068,-0.049348079038178005,-9.98086556749669e-08,-6.940818889850744e-07,-0.5211852768964106,0.14618273434675694,-0.02025959038915925,9.799999458829484
1727706341.2183754,-2.337282213051332e-08,6.508939397025695e-07,0.9991306408337159,-0.04168887797463222,2.0722253115577375e-07,-6.707463310105426e-07,-0.49876871342294354,-0.029408558925485623,0.8036483525798127,9.800005348853569
1727706341.4858472,-1.684422155188987e-08,6.522837297597071e-07,0.9994873765127351,-0.03201537429524365,4.5522217429361203e-07,-6.33741107113244e-07,-0.47610502273276945,0.0996954748429758,1.5162932329406391,9.800009188204783
1727706341.517702,-1.2304976592745261e-08,6.552853552144619e-07,0.9996761734419465,-0.0254469694077325,1.208474840950705e-07,-5.688483316754453e-07,-0.4165081421028213,-0.11391585768699526,0.5961878649011334,9.799997663772539
1727706341.5470896,-8.121467831055706e-09,6.477080754423013e-07,0.9998074148582248,-0.0196248106766419,-8.127306109661275e-07,-5.083537809874228e-07,-0.3836728369787741,0.12024172420498284,-1.9664905951896277,9.800002709136342
1727706341.8016562,-4.194320452713263e-09,6.358498729330902e-07,0.9999018382200944,-0.014011207074020371,-7.885869758045816e-07,-4.789251308678124e-07,-0.3695456427005781,0.08921095263642993,-1.9642283038454513,9.800002655338849
1727706341.815794,3.9480327952666746e-10,6.465095148456157e-07,0.9999763240588825,-0.00688122963334753,5.208920308545276e-07,-4.5678587190397236e-07,-0.3487550451532776,0.07652011433495812,1.6908038001531185,9.79999770791209
1727706341.844065,3.6891802549266806e-09,6.501013137988588e-07,0.9999977277937581,-0.0021317614543174823,1.2245107616940024e-07,-4.007747787701368e-07,-0.29430877902750285,-0.17548790347989893,0.5889941417830786,9.79999806160718
1727706341.8794034,6.4346697138530385e-09,6.495541265484002e-07,0.9999981809446183,0.0019073822459775847,-1.0715730102763434e-07,-3.481623952747568e-07,-0.2658646799746498,0.10384326593995293,0.0009589620327364178,9.799999409390567
1727706341.9410362,9.966237303337412e-09,6.494629905885226e-07,0.9999731866319646,0.007322978676265857,-1.1109027528441272e-07,-3.542341920412026e-07,-0.2712774361299368,0.13567592145646912,-0.006822210245497883,9.799999903200128
1727706341.967836,1.2624106921920647e-08,6.484704333005739e-07,0.9999355990090296,0.011348913341497624,2.3109735354001702e-08,-3.479691409839936e-07,-0.26261297990504284,0.012032925746428346,0.33989775306743053,9.800002171743639
1727706342.1923563,1.51576645096407e-08,6.469399761132545e-07,0.9998838056540261,0.015243857464660726,-1.0700904358548749e-07,-3.3712549485776116e-07,-0.25933731034022184,0.12711892353283055,-0.008350009265342722,9.799999985906751
1727706342.1970177,1.8594719952120965e-08,6.457129796029475e-07,0.9997879815898969,0.020591062818184236,-1.0456382790515462e-07,-3.481791157680233e-07,-0.2682076812516967,0.13738815416644778,-0.008116147869833277,9.79999997464261
1727706342.226219,2.1151492819929547e-08,6.441441118560676e-07,0.9996986786014698,0.024546934677465215,-1.0201746057809154e-07,-3.410400957803869e-07,-0.2632655824194507,0.12919277293371165,-0.009699399406239213,9.80000002601407
1727706342.5112653,2.3673080373889927e-08,6.42596315269899e-07,0.9995939892549524,0.028493098198621836,-9.912815797458663e-08,-3.398886136110968e-07,-0.26315893732300255,0.13287088099975333,-0.009280894190250816,9.800000029700852
1727706342.5164201,2.5976887592243275e-08,6.410794509964141e-07,0.9994890863732356,0.03196194957105736,-9.58888344812851e-08,-2.936003345259023e-07,-0.2287129854315453,0.11199808261467145,-0.005754313094051995,9.800000050758754
1727706342.5438764,2.88381072093749e-08,6.391218947967545e-07,0.9993324919874905,0.03653177326195861,-9.281994087354954e-08,-2.9245937018185967e-07,-0.22861679957082548,0.1153229444971407,-0.007006828271985147,9.800000025649902
1727706342.572622,3.0974209013952526e-08,6.376925385744919e-07,0.9992013399273307,0.03995850706694648,-9.013664831810603e-08,-2.9184923540492626e-07,-0.22861623080882093,0.11534256049424561,-0.0070045982989718715,9.800000025096491
1727706342.603327,3.312553414883357e-08,6.362960295256953e-07,0.9990560644622659,0.043439383752104044,-8.750506449029923e-08,-2.9646767838787545e-07,-0.2326952200187135,0.12056914460376356,-0.00678726709974017,9.800000023037434
1727706342.6557019,3.600399830945142e-08,6.344804479318314e-07,0.9988436442752899,0.04807675415889229,-8.415028804227645e-08,-2.9423449687226506e-07,-0.23129278107077714,0.11233999160010395,-0.007741134940402007,9.800000023139889
1727706342.924115,3.814174727309468e-08,6.331529994540294e-07,0.998670920497895,0.051540203254204886,-8.174852256584558e-08,-2.932941542912831e-07,-0.23117065815742655,0.116551529331527,-0.007174856033229802,9.800000023609517
1727706342.9249732,3.965628875664083e-08,6.215426133446067e-07,0.9984937906676346,0.05486483389011537,-7.610248897094138e-07,-2.735415474834007e-07,-0.21736400344338438,0.041778435507848995,-1.9429376812332346,9.800002572235407
1727706342.9479554,4.1360497743310054e-08,6.066027344788862e-07,0.9982590331043593,0.058982224654380855,-7.308460873621988e-07,-2.4346072055749004e-07,-0.1996481786155705,0.020957578631574693,-1.9404507764742622,9.800002505905411
1727706342.978196,4.2424090062809126e-08,5.957911404971551e-07,0.9980857391488847,0.061845430771140186,-7.08988350984499e-07,-2.2280430511945463e-07,-0.1870890158509463,0.007548007708492097,-1.938725274662789,9.800002457995632
1727706343.0535748,4.332198705289652e-08,5.853061752261369e-07,0.9979160113653713,0.06452622924271639,-6.877778561871827e-07,-2.0368011469400805e-07,-0.17513910038967978,-0.0042584285899051,-1.9371303681767238,9.800002411630112
1727706343.0848894,4.451246467269145e-08,5.817113043835723e-07,0.9977507491003346,0.06703314605015054,6.50345487324492e-07,-1.8731933709104494e-07,-0.16367904194458555,-0.019122917005303393,1.7165181686747908,9.800024120625132
1727706343.3321712,4.714652905321887e-08,5.942633938366444e-07,0.9975386809310174,0.07011832888802833,6.248103502252102e-07,-1.7495645285725745e-07,-0.14938467619352946,-0.005957656482446369,1.7181845682569963,9.799997826274655
1727706343.335569,4.9047728765503216e-08,6.033487195639083e-07,0.9973861686340111,0.07225531549444475,6.062734657609518e-07,-1.6622066047847597e-07,-0.13963754199107198,0.0024906032682364397,1.7192301462949129,9.799997797020376
1727706343.3529253,5.081567715749277e-08,6.111917772375555e-07,0.9972425880354165,0.07421065023329437,3.9378298413935634e-07,-1.5282314822736228e-07,-0.12199779142602427,-0.11086611242966711,1.1645239690102158,9.79999460573973
1727706343.6434484,5.2100358317047686e-08,6.144536631408613e-07,0.997135872699505,0.07563102125064686,1.4758256546707966e-07,-5.668409737370239e-08,-0.04017883027089253,-0.26251137531467483,0.49113799517640266,9.79999928499744
1727706343.6453583,5.27321627464178e-08,6.197570951831705e-07,0.9971079649212906,0.07599806767369383,1.7150878114848996e-07,-1.5686009002648015e-08,-0.008801396342909086,-0.24266390436744276,0.5903906723346413,9.79999573439146
1727706343.6522653,5.2682371367514405e-08,6.200708475929129e-07,0.9971042947383607,0.07604620578259813,1.3679521407865972e-07,4.300340992746101e-09,-0.003598332047644397,0.019306282237042942,0.5340063667363012,9.800003042431275
1727706343.6925337,5.250127050838444e-08,6.191253669453464e-07,0.9970981346310762,0.07612693291366862,-5.489146865695137e-08,2.6691235075076536e-09,-0.00409302948795431,0.0019886160337014,0.00023384881626876188,9.800000001230432
1727706343.7225218,5.2407964220271345e-08,6.190991229704369e-07,0.9970965020062381,0.07614831374717279,-5.214701917027723e-08,6.1337139698603165e-09,-0.0011133465391050322,-0.0017700404776337035,0.007157651371021618,9.799999674247529
1727706343.752428,5.238078186717769e-08,6.200337510806728e-07,0.9971000094864453,0.07610237237920925,2.936843675127757e-07,1.2999381648919328e-08,0.011334419964991498,-0.17207912048111432,0.9377359815509618,9.800005666831039
1727706343.783245,5.2060527853967404e-08,6.203309211371125e-07,0.9971356577756384,0.0756338548003277,-5.305867844338574e-08,4.967411311153305e-08,0.03370667082143438,-0.03341910653607945,0.007990718406638725,9.799999539413086
1727706344.031505,5.151094349403572e-08,6.226670997429058e-07,0.9972204443129082,0.07450762003966704,1.0181769379044097e-07,9.943908573627252e-08,0.08052812806100686,-0.25511834930163896,0.4153113921124983,9.799998626796793
1727706344.0433846,5.051849029072842e-08,6.219671495503242e-07,0.9973156431679868,0.073222318264553,-5.877518208888616e-08,1.180468210226925e-07,0.0865645474729968,-0.04778722492365601,-0.0003943297917107414,9.799999959843625
1727706344.0707078,4.949664065445916e-08,6.211627578346101e-07,0.9974100047820085,0.0719255334381711,-5.745524392093232e-08,1.1799286563138039e-07,0.08669476667780321,-0.04329810849490523,-0.0009609539344413111,9.800000012896115
1727706344.174016,4.7426719438446334e-08,6.098479124662451e-07,0.9975293513361989,0.07025093040243835,-7.353040300587108e-07,1.1097705345977669e-07,0.08121659973346876,-0.016095992131957722,-1.9207477715308103,9.800002496255354
1727706344.2059298,4.580786946771588e-08,5.991192062743723e-07,0.9976105651260805,0.06908806227172143,-7.134515840691284e-07,1.0200942681811729e-07,0.07598964521060544,-0.010251620060889423,-1.9205491771179195,9.800002450085845
1727706344.2419093,4.429337854775149e-08,5.887049200555967e-07,0.9976852639748228,0.0680008385767385,-6.922435108590228e-07,9.368805276026614e-08,0.07101117965107683,-0.00508706885581742,-1.9203672405807926,9.80000240532655
1727706344.4451144,4.3751507558493575e-08,5.948140550329422e-07,0.9977758033111329,0.06665918036150487,6.263610545046298e-07,8.456776066178906e-08,0.0651039257426603,-0.0006367642725532008,1.7317639867813162,9.79999780920543
1727706344.45557,4.369397432640304e-08,6.040422876188821e-07,0.9978377944797291,0.06572469784991802,6.076711349425825e-07,8.084416833469565e-08,0.06113729474635689,-0.004078533174696392,1.7315190162357688,9.799997781371374
1727706344.493776,4.3638148512040196e-08,6.129947812846932e-07,0.9978952545666205,0.06484644102062809,5.895397046688542e-07,7.730676726169609e-08,0.0574773786867394,-0.007101786464763493,1.7312753558739413,9.799997754386903
1727706344.7557838,4.3109913258562864e-08,6.158406159068444e-07,0.9979692042581642,0.06369825234608434,-1.2008438948610324e-08,1.1225954700543541e-07,0.08853003967221579,-0.14063913023464927,0.07829330573966126,9.799998097783783
1727706344.771237,4.1785520011295615e-08,6.150369693840223e-07,0.9980831035333961,0.061887950691260074,-4.434576017740798e-08,1.1950325198518036e-07,0.09048356158603316,-0.041645541131269115,-0.0014151090341349133,9.800000038672321
1727706344.8019288,4.079623110047143e-08,6.144427853152681e-07,0.9981661396034822,0.0605339388170153,-4.2806455614815545e-08,1.1898979181513482e-07,0.09043148791303687,-0.043443813481705604,-0.0010347652880088724,9.800000010121252
1727706344.8337612,3.983885854081868e-08,6.141908162640959e-07,0.9982460552930004,0.05920146190411901,-3.401862970110005e-08,1.1598511242567297e-07,0.08800762137334806,-0.0352837425899472,0.022534302963442932,9.799998993254032
1727706344.8783133,3.8661448389408695e-08,6.149787102173514e-07,0.9983493692201226,0.057432891076485526,2.6761678218818746e-07,1.1635789509156109e-07,0.0908293367506828,-0.0832261423604325,0.8474806659777055,9.800005035691655
1727706344.9091752,3.7689910574119626e-08,6.14634589000391e-07,0.9984275432161263,0.05605747895714702,-4.1972086952809635e-08,1.2024713929519443e-07,0.09196256668787894,-0.0461681000257572,0.0011873227100512814,9.799999902812818
1727706345.1367621,3.6668187670188414e-08,6.147572971191471e-07,0.9985231798520624,0.054327334719698916,9.417038550760723e-08,1.6358981571552032e-07,0.13693613625067708,-0.32716471009603687,0.3357897638655071,9.800002193039091
1727706345.16567,3.467520369557976e-08,6.141383402246982e-07,0.9986704218598478,0.051549864227709574,-7.648374159316894e-08,1.7229351122844399e-07,0.11558509023212296,0.3810666127144473,-0.037333262879809787,9.799999380631938
1727706345.193464,3.357241302447017e-08,6.137619593213304e-07,0.9987464106675643,0.050056040377556454,-3.991725432171376e-08,1.2749816307638326e-07,0.09781471566303719,-0.03493149521484901,0.0025770354856907863,9.799999923361737
1727706345.2846084,3.259124492489996e-08,6.132045377267769e-07,0.9988106682727242,0.04875703994519237,-3.9599854482304475e-08,1.0573453580250145e-07,0.07930949975159526,0.014049209251053244,0.006750311669556857,9.799999998041015
1727706345.3107677,3.176020544050093e-08,6.12658508957089e-07,0.9988670097253676,0.04758883148309151,-3.844923659175574e-08,1.0086482327523538e-07,0.0778114598216235,-0.037625938102421805,-0.0005861656436378926,9.800000008049533
1727706345.357625,3.073927588490875e-08,6.119539890006447e-07,0.9989315557433274,0.0462141422060397,-3.7042302449347755e-08,8.400278201250691e-08,0.06439013392498016,-0.02176965376011184,0.0010519194267030161,9.800000001118237
1727706345.5632117,3.008106488237308e-08,6.114423267553658e-07,0.9989716252825857,0.04533973841890365,-3.5869227972033515e-08,7.20690742978426e-08,0.05437651293824216,0.0016883643016437479,0.00428845511063443,9.799999975180635
1727706345.570425,2.9499483744441187e-08,6.109355354504443e-07,0.9990085831654868,0.04451798244881394,-3.5018853782817706e-08,7.163181435931854e-08,0.055561237520730014,-0.03294993791810974,-0.0011512237383988259,9.800000010392278
1727706345.6138723,2.8713001133367168e-08,6.102842519976852e-07,0.9990575531728397,0.043405131585158796,-3.3621906057963263e-08,7.185638358389531e-08,0.055709823571801265,-0.027824508464179276,-0.00038185942898566987,9.800000007275038
1727706345.916626,2.8169735257057835e-08,6.0977189774465e-07,0.9990860963133367,0.04274309479910593,-3.356882386838007e-08,5.011742198527074e-08,0.03629592804068413,0.03896791511948202,0.005487892729425505,9.800000103231154
1727706345.9220247,2.7747057205295255e-08,6.0862751655433e-07,0.9991095151375328,0.04219214098944113,-4.744973835932935e-08,4.859498990000762e-08,0.0378881136409404,-0.027002951672013317,-0.04826524452864847,9.800002124772591
1727706345.9475298,3.045982696405031e-08,5.937740760213456e-07,0.9988216037971224,0.04853250238541901,-9.815473344912029e-10,-1.1361802678254676e-07,-0.09369008727248936,0.042787943783475606,-0.0013417525926219247,9.800000019549875
1727706345.954364,2.72037786383942e-08,6.080429710239152e-07,0.9991413750625971,0.041430817487136895,-2.9118188245725383e-08,4.9123346737834896e-08,0.03812052278895454,-0.018923961217925042,-0.00019157813827784152,9.800000006914988
1727706345.990209,2.6807974886041907e-08,6.078754646747201e-07,0.9991650521415494,0.040855826739947476,-2.2559566002497628e-08,4.948123848291567e-08,0.0385313592847024,-0.020301315297624252,0.01661383579911151,9.799999241988582
1727706346.0388584,2.640052937720996e-08,6.074729693990074e-07,0.9991885166921611,0.040277886118184225,-2.787475257597534e-08,4.948130033963623e-08,0.0385646579592505,-0.01917384741439218,-0.00012633605635781,9.800000003699846
1727706346.0692394,2.5954167269629717e-08,6.058945280558949e-07,0.9992104455434083,0.03973015877863162,-4.300473619954067e-08,4.5502402257381306e-08,0.03512429644080823,-0.007010787528610073,-0.048934049743908956,9.800002267923672
1727706346.226685,3.123898890606515e-08,5.919947481930618e-07,0.9987510144985701,0.04996409748734898,-3.4655079029341687e-07,-1.1625380883156218e-07,-0.0991996497815697,0.1176142880623541,-0.9492736107207117,9.799994313623769
1727706346.2398837,3.242323594318104e-08,5.913529391322882e-07,0.9986506082354198,0.05193228928782878,3.5286310198555867e-09,-1.1887439866751106e-07,-0.09847052566010714,0.04156325337305953,-0.002213865379684547,9.800000040039556
1727706346.2671008,3.333267691501789e-08,5.913636864570935e-07,0.9985728150469554,0.053407237794592055,3.715940202942595e-09,-1.1880676881028555e-07,-0.09846609422268213,0.041715845437894486,-0.0013206074909801148,9.800000000766536
1727706346.297431,3.4247397968572024e-08,5.914767151499395e-07,0.9984932034073644,0.05487552048908756,2.466563449455618e-08,-1.180830724193598e-07,-0.09715583544673456,0.02335940289148947,0.05462913677512224,9.800000348362362
1727706346.305741,2.546309774037591e-08,6.036648168423112e-07,0.9992238473227042,0.03939166080844925,-2.171424679473633e-07,1.330835216680078e-09,-0.012224277698943723,0.3087871678746791,-0.49722296899673335,9.799999877130414
1727706346.3097138,2.566389946256341e-08,6.020439606930793e-07,0.9991996056570744,0.04000185063698397,-2.5530981624459075e-08,-5.3917974800468156e-08,-0.04530964172044827,0.05484911196862047,-0.018568559806192948,9.80000103286551
1727706346.3398242,2.614539674394272e-08,6.011949553767713e-07,0.9991624140965918,0.04092029149833332,-1.7466738153278364e-08,-7.70294868908866e-08,-0.06318264591989672,0.04359351444002225,-0.0041073876228770005,9.800000249075088
1727706346.3674216,3.5437796214075405e-08,5.914959208996837e-07,0.9983852070905017,0.05680649841791552,3.1906810348359764e-09,-1.1650897735219188e-07,-0.09665450949992312,0.040907648820238396,-0.0012623459306233347,9.799999999701214
1727706346.3980267,3.619752918779091e-08,5.895938276015482e-07,0.9983044679436739,0.058208154783921884,1.9703326066680822e-10,-1.1198461872326002e-07,-0.09323025944926405,0.035877063254515125,-0.019976741623656497,9.800000830516584
1727706346.4343467,2.692666416474559e-08,6.00940206391679e-07,0.9991105143394248,0.04216847324777889,-1.3030521720445834e-08,-7.549475147652244e-08,-0.06116016208517113,0.02182270159290898,0.003940146910923194,9.79999975992288
1727706346.4729502,2.749036436405586e-08,6.006981064276794e-07,0.9990715215568569,0.043082418846967785,-1.4576842461927096e-08,-7.482470655252528e-08,-0.06096426604227426,0.02860708314356566,-0.0005123440808502438,9.80000000279772
1727706346.5004482,2.8052043734066376e-08,5.984704711639783e-07,0.9990213345287648,0.044230907248289986,-1.708671204753656e-08,-9.545700161691246e-08,-0.07850377160719134,0.049728403355723434,-0.018074841145252735,9.80000086305457
1727706346.6506333,3.686754608864796e-08,5.865599312931075e-07,0.9982227410202509,0.05959328242068246,-6.108749730737542e-07,-1.1003822941637438e-07,-0.09117288525096584,0.010894524453251708,-1.7169233192815452,9.799989836284418
1727706346.654351,3.791006725400801e-08,5.857409106157011e-07,0.9981136171628304,0.06139386967594007,1.3934316407889052e-08,-1.0711423227693187e-07,-0.0900954111945772,0.03495203522656382,-0.0025255107506089287,9.800000060808124
1727706346.6637414,3.873348611687908e-08,5.858992155872469e-07,0.9980287375110667,0.06275857791347311,1.2953780096938064e-08,-1.0875250134849554e-07,-0.09328923013501383,0.08000117333666808,0.0020579062007475535,9.799999978369627
1727706346.6989768,3.959343482198302e-08,5.860528820748616e-07,0.9979389020099695,0.06417123853247397,1.3591435116609903e-08,-1.1236896613360444e-07,-0.09449611199858911,0.03784793232553773,-0.0010867625457145651,9.799999998425728
1727706346.701662,2.884313418792482e-08,5.943118740191488e-07,0.9989492478871043,0.04583012268622677,-1.4174905609316198e-07,-9.83418662640368e-08,-0.08339645397739887,0.09479546607583718,-0.37680921600763917,9.800010704465413
1727706346.718214,2.9603706349781247e-08,5.938703408175102e-07,0.9988886417047904,0.04713259459021096,-5.5982453731722177e-08,-1.0642546752424823e-07,-0.09128615293433764,0.12654707103492746,-0.13990683010109836,9.79999915473456
1727706346.7946162,4.04583848475824e-08,5.861994805696862e-07,0.9978469176915339,0.06558604160306869,1.3174636366919192e-08,-1.1244424068176143e-07,-0.09452210310816327,0.0369402427500818,-0.0012136574216241466,9.799999998621836
1727706346.8414807,4.138911923417259e-08,5.864882978820931e-07,0.9977653460746512,0.06681552343719538,1.8985777006853814e-08,-5.223065066963022e-08,-0.04210932856966355,-0.045922752068432604,0.009054439557718662,9.799999199082169
1727706347.0521371,4.1667973230776913e-08,5.852994075719178e-07,0.9977276485779846,0.06737610305369185,-2.591683071657285e-07,-4.1935526303153714e-08,-0.031053344544210926,-0.11658494148415063,-0.7699793901645814,9.799995538964092
1727706347.0616057,4.190950805205642e-08,5.852385264473032e-07,0.9977008950490739,0.06777111492318993,5.141563944342013e-09,-2.9176918425210368e-08,-0.023065904033194574,-0.0542479242307327,-0.03563692490441964,9.799999951612934
1727706347.1001582,4.216417463415382e-08,5.855050993877066e-07,0.9976717251947809,0.06819918435380556,1.4303371340118313e-08,-2.392946182319247e-08,-0.021292938497370763,0.007728162045817556,-0.00012214701537200328,9.799999997838635
1727706347.3573573,4.2349723926966923e-08,5.856486225778467e-07,0.9976537625662797,0.06846144927621728,2.875334792715109e-09,-1.8081594886793616e-08,-0.010007562759851207,-0.14980122765933201,-0.05216300941107092,9.799999826620343
1727706347.3593328,4.2409492423200084e-08,5.858422872358732e-07,0.9976473834935917,0.06855434492463058,1.3605757606943733e-08,-5.3958718099908045e-09,-0.00575481406711424,-0.0011206618062218454,-0.0005677329793063434,9.800000002913423
1727706347.3940258,4.2464701628870537e-08,5.861054865998814e-07,0.9976396027616004,0.06866748139644185,1.3108633443720582e-08,-5.18074842786026e-09,-0.0056617815156444744,0.00213182301549756,2.5287445256605515e-06,9.799999997366708
1727706347.4275482,4.2506129187627236e-08,5.862959820785889e-07,0.9976337679652159,0.06875220007519867,1.2718300992090345e-08,-5.224923403612193e-09,-0.005661232912541896,0.002151002082942836,5.443776969851994e-06,9.799999997419446
1727706347.457559,4.254783861280225e-08,5.864807051657542e-07,0.9976279260458072,0.06883691722611862,1.2339870013816623e-08,-5.270150921218619e-09,-0.005661221098753532,0.0021514146478693063,5.509431428193779e-06,9.799999997497576
1727706347.4996507,4.247120909867148e-08,5.855634898335854e-07,0.9976343217346737,0.0687441640916025,-1.3550200118413532e-08,1.583304577311686e-08,0.014301911726130732,-0.0646725770995464,-0.0846806475445858,9.800003450090951
1727706347.7619133,4.202786870804671e-08,5.823750146739495e-07,0.9976558742462502,0.06843066989010899,-6.797181767472803e-07,2.1221909981039982e-08,0.015543717045777158,-0.0021993295672355037,-1.9217055119325683,9.799988568693612
1727706347.7647388,4.117400724173703e-08,5.724166102739393e-07,0.9976710093083807,0.06820965609990604,-6.594969548498133e-07,1.9381490205592006e-08,0.01438795204939284,-0.0011679621388259675,-1.9215709343550176,9.800002337236467
1727706347.795415,4.035701454768901e-08,5.627540765160682e-07,0.9976849570042179,0.06800534219584142,-6.398500517769485e-07,1.7679714517045327e-08,0.013291469652949417,-0.0002818369035008256,-1.921427330054232,9.800002295911368
1727706347.8371327,3.932161330507759e-08,5.50315908715386e-07,0.9977018266442933,0.06775739893425381,-6.145587910805766e-07,1.561084700293303e-08,0.011919030012070538,0.0006928040947351233,-1.9212354605194466,9.800002242695877
1727706347.8930578,3.858309207840117e-08,5.413102669776561e-07,0.9977132689176293,0.06758870486556018,-5.96246604535469e-07,1.4199597608211877e-08,0.010954731996548832,0.001282426821660183,-1.921091095977335,9.800002204184816
1727706347.92249,3.877330765714897e-08,5.456512096777706e-07,0.9977238500900928,0.06743232875336796,7.258989795544893e-07,1.185518737629747e-08,0.010254386313552577,0.003182560413933593,1.7311287473701724,9.799997962072881
1727706348.1557612,3.960471805851809e-08,5.597846116098652e-07,0.9977370476989188,0.06723677303924602,6.972191390453888e-07,1.135008936748515e-08,0.00953787174228877,0.0022757260441275797,1.730880900734948,9.799997918072906
1727706348.159007,4.0024528790657476e-08,5.674739521740772e-07,0.997755787155836,0.06695811524165068,2.9335402088417554e-07,2.6021849680536923e-08,0.03164310236084919,-0.2377380727062839,0.6324751872935696,9.799994075520962
1727706348.192678,3.95913084380436e-08,5.678873166349425e-07,0.9978194315311282,0.06600289431965739,4.930638394907021e-08,7.811607355042979e-08,0.06765331705417507,-0.043412961714767336,-0.008276470064208305,9.800000165624049
1727706348.4799068,3.902292260070068e-08,5.68668256360669e-07,0.9978865710801055,0.06497992965265853,4.918645552008621e-08,8.04014834700553e-08,0.06842662195053742,-0.01590041162027679,-0.000715937380053459,9.799999991786152
1727706348.488369,3.819959434335134e-08,5.683387649457881e-07,0.9979701151318447,0.06368397995891528,4.926077238405648e-08,7.582934957423289e-08,0.06458720776894987,-0.013131182125328456,-0.002264625135022025,9.800000072949727
1727706348.5091343,3.766220266047508e-08,5.691059511187861e-07,0.9980313255340931,0.06271740788916164,4.8446613617058006e-08,7.579205780264325e-08,0.06456483785186888,-0.013924133307492377,-0.0005502781491301419,9.799999991247606
1727706348.5423405,3.712311705577477e-08,5.698514597639058e-07,0.9980915971742512,0.06175081902149593,4.701340349626347e-08,7.581887154186202e-08,0.06456435788594907,-0.013941210791000596,-0.0005476674669689601,9.799999991316723
1727706348.5820093,3.640162132368251e-08,5.708120095891208e-07,0.9981705030654933,0.06046194513619724,4.516510475501694e-08,7.585530828481285e-08,0.06456434742014366,-0.01394158416195119,-0.0005476908728072038,9.79999999169093
1727706348.635319,3.588583583326831e-08,5.723491796871194e-07,0.9982351944054573,0.05938431316408149,6.334019795201265e-08,8.870509567690741e-08,0.07702955182508331,-0.05417246752211756,0.05197945647736425,9.799997392724897
1727706348.8742726,3.522366863046588e-08,5.730249517804201e-07,0.9983039392204054,0.058217221993938084,4.102096337571122e-08,9.176984654094295e-08,0.07804938311185614,-0.018008144941001936,-0.0007629518446849011,9.79999998602275
1727706348.878628,3.412882827467758e-08,5.7426575317466e-07,0.9984253910594647,0.05609579741321319,3.7191315691573136e-08,1.3020810546121514e-07,0.1112064920774258,-0.0365247477734175,-0.008089794419300083,9.800000212571701
