timestamp,orientation_x,orientation_y,orientation_z,orientation_w,angular_velocity_x,angular_velocity_y,angular_velocity_z,linear_acceleration_x,linear_acceleration_y,linear_acceleration_z
1727705726.222198,6.573013607345998e-07,-1.7727919379301786e-09,-1.4274793856960954e-06,0.999999999998765,-1.2760597421904227e-07,1.3210541348420466e-09,5.2525326013792735e-14,3.439281014720107e-08,1.285072910794786e-05,9.799897856967224
1727705726.2587926,6.554253120606081e-07,-1.7533642377380073e-09,-1.4274793848634282e-06,0.9999999999987662,-1.2381428021348635e-07,1.2821892486450478e-09,4.366828154855559e-14,3.4028599248253824e-08,1.2814883417717671e-05,9.799900890752225
1727705726.2876534,6.5360499504466e-07,-1.7345137436552385e-09,-1.4274793841417832e-06,0.9999999999987674,-1.201370904500508e-07,1.2435847547140066e-09,5.630536314239977e-14,3.365412427464317e-08,1.278018462082871e-05,9.799903834357046
1727705726.5000138,6.512617331127378e-07,-1.7102518622028217e-09,-1.4274793832536048e-06,0.999999999998769,-1.1540217473302892e-07,1.1945483249319235e-09,4.92253604612978e-14,3.3196188075063645e-08,1.2735424425697027e-05,9.799907623693686
1727705726.5083501,6.495650863715445e-07,-1.6926847830450137e-09,-1.427479382587471e-06,0.9999999999987701,-1.119749897835966e-07,1.1592044193553543e-09,4.4889385793889346e-14,3.286389381486638e-08,1.2703059603529427e-05,9.799910367347254
1727705726.5445263,6.47918835737904e-07,-1.6756398888687601e-09,-1.4274793819768483e-06,0.9999999999987712,-1.08648948631099e-07,1.1248882284864783e-09,3.796395171790209e-14,3.2547931928477954e-08,1.2671648084133938e-05,9.799913029513375
1727705726.8223531,6.457996400093996e-07,-1.653700363917958e-09,-1.42747938108867e-06,0.9999999999987725,-1.0436821900174065e-07,1.080378252012692e-09,4.169186135470814e-14,3.211937617453831e-08,1.2631203881844956e-05,9.7999164564954
1727705726.836363,6.442652288267787e-07,-1.6378140276679257e-09,-1.4274793805335584e-06,0.9999999999987736,-1.0126772701231058e-07,1.048352794103331e-09,3.853582621552045e-14,3.1820139588253706e-08,1.260190402599091e-05,9.799918937838235
1727705726.8651817,6.427763942152835e-07,-1.6223980830495695e-09,-1.4274793799784469e-06,0.9999999999987745,-9.82595546696659e-08,1.0173192850434026e-09,3.551629877060978e-14,3.152979890304629e-08,1.257347282106949e-05,9.799921345480987
1727705726.9012175,6.413317856315436e-07,-1.6074372663162041e-09,-1.4274793794788465e-06,0.9999999999987755,-9.534117469112277e-08,9.872197264763306e-10,3.83717412969349e-14,3.123679681817069e-08,1.2545917297910616e-05,9.799923681572471
1727705726.9701598,6.394721759689682e-07,-1.58817616780406e-09,-1.4274793787572015e-06,0.9999999999987768,-9.158376819558209e-08,9.484333667282866e-10,3.608729167639874e-14,3.087046765942614e-08,1.2510421510949095e-05,9.79992668882208
1727705727.0018296,6.381257245180052e-07,-1.574233032231969e-09,-1.4274793781465789e-06,0.9999999999987774,-8.886287172232613e-08,9.201347183261129e-10,3.290157460539377e-14,3.0608809854167415e-08,1.2484716814966284e-05,9.799928866248349
1727705727.2242646,6.368192681014786e-07,-1.560706805521916e-09,-1.4274793776469785e-06,0.9999999999987784,-8.62232003729206e-08,8.924867278601977e-10,3.6799145212591565e-14,3.034339183870432e-08,1.2459783328825235e-05,9.799930978980896
1727705727.242185,6.351374974095518e-07,-1.543294126684402e-09,-1.4274793769253336e-06,0.9999999999987794,-8.282547721954275e-08,8.573466045320832e-10,3.356639924611794e-14,3.0013949215212973e-08,1.2427687109712428e-05,9.799933698682839
1727705727.2741249,6.339198009319779e-07,-1.5306870534867343e-09,-1.4274793764257332e-06,0.9999999999987802,-8.036477049845546e-08,8.318720429024861e-10,3.222005813028642e-14,2.9773467024022038e-08,1.2404414420483277e-05,9.799935667927208
1727705727.3033378,6.327382765278892e-07,-1.5184544641244837e-09,-1.4274793762036886e-06,0.999999999998781,-7.797814463102254e-08,8.071680082316076e-10,3.1188558347830797e-14,2.9540064949942324e-08,1.2381883509215997e-05,9.799937578636463
1727705727.3725965,6.312173161504693e-07,-1.5027080941295371e-09,-1.427479375648577e-06,0.999999999998782,-7.490508514195246e-08,7.756119059813961e-10,2.4683249225549852e-14,2.9243741873702296e-08,1.235284572034743e-05,9.79994003828766
1727705727.4032252,6.30116060137197e-07,-1.491304737938453e-09,-1.4274793750934656e-06,0.9999999999987826,-7.268050388287551e-08,7.524951005127293e-10,2.884228318268733e-14,2.9021361378737063e-08,1.2331831560203282e-05,9.799941819204754
1727705727.618098,6.290475166467118e-07,-1.4802399546297996e-09,-1.427479374538354e-06,0.9999999999987832,-7.052192828095895e-08,7.303113511933236e-10,2.3430991921741406e-14,2.881593985003445e-08,1.2311455496874745e-05,9.799943547212889
1727705727.620414,6.280107135032951e-07,-1.4695033952643478e-09,-1.4274793740942648e-06,0.9999999999987839,-6.842614807558947e-08,7.083517660489525e-10,3.131528328605843e-14,2.859967282197054e-08,1.2291625722792793e-05,9.799945223953197
1727705727.6610787,6.266760579697529e-07,-1.455680699853469e-09,-1.4274793735946645e-06,0.9999999999987847,-6.572990152958464e-08,6.805527952375847e-10,2.7761420623970494e-14,2.8339706698756753e-08,1.2266174698706787e-05,9.79994738233361
1727705727.8978045,6.257114073093118e-07,-1.4415360054056103e-09,-0.00014050148823496755,0.9999999901294705,-6.347670536616786e-08,-1.5925306933656926e-08,-0.027814801136224324,0.38946734747539474,0.05419162763634928,9.799948919465482
1727705727.9088838,6.247771007910289e-07,-1.938204322319991e-09,-0.001359409437294179,0.9999990760023688,-6.180426279713952e-08,-1.1711975945846395e-07,-0.10734392638888801,0.3624866789717321,0.04824291705122339,9.799950398852983
1727705727.9493103,6.235914727621005e-07,-3.696667157405396e-09,-0.004509422072498659,0.9999898325044024,-5.836983212696627e-08,-2.1257229320896216e-07,-0.1716382531668252,0.044336161833995164,0.0032148902829280965,9.799952347711777
1727705727.9806411,6.227200411719379e-07,-5.309770775082262e-09,-0.007099702502478766,0.9999747967943934,-5.7072731069124904e-08,-2.157564787618029e-07,-0.17281309811026285,0.00152856279960852,-0.0040337310288737415,9.799953831374149
1727705728.0113661,6.218695569983025e-07,-6.923571725070045e-09,-0.00969214360876669,0.999953030072853,-5.5390249338171934e-08,-2.1552485896348495e-07,-0.17283821493492746,0.0006133153743845706,-0.004167686316787179,9.79995520332268
1727705728.0643191,6.207719284212251e-07,-9.225070352998222e-09,-0.01355908860272792,0.9999080713324989,-5.284668862623574e-08,-2.522082961807616e-07,-0.20345248354342788,0.02519692466378053,-0.0023386097601383916,9.799956959963996
1727705728.3011456,6.232541486283281e-07,-1.1175793580638766e-08,-0.016586944533495573,0.9998624271721857,6.05916685065816e-07,-2.506972629994033e-07,-0.1976348220322537,-0.09147438354804956,1.8040693527910276,9.7999689492836
1727705728.3095887,6.277244028365784e-07,-1.3121586450699227e-08,-0.019644403811993505,0.9998070300805437,9.93263445593484e-08,-2.645863688471439e-07,-0.21740841312713965,0.21361048891831266,0.4780275248185948,9.799956864796636
1727705728.338432,6.244038179637931e-07,-1.5164760609219494e-08,-0.023046055585651315,0.9997344043902625,-7.17591059055897e-08,-2.867938237453986e-07,-0.22907275298507998,0.026028125523672244,-0.03701927225445386,9.799962137896403
1727705728.379009,6.219067529917503e-07,-1.798676060914556e-08,-0.027691200946116434,0.999616525168414,-3.071504764932947e-07,-2.94018678992979e-07,-0.2409016254621096,0.16968354319983084,-0.6777481793180905,9.799958173720642
1727705728.4337957,6.206073185885552e-07,-2.026068658110854e-08,-0.031425391838338146,0.9995061004053056,-5.388605054669427e-08,-3.115018396723901e-07,-0.2500230058403045,0.014993639767289811,-0.01183364432268472,9.79996355213182
1727705728.4661117,6.185211612035205e-07,-2.2584641824076377e-08,-0.0354239263193305,0.99937237576578,-1.8636192704027905e-07,-3.414772691505809e-07,-0.2828317602651552,0.22795064554498634,-0.3607155259962203,9.79996443143734
1727705728.6985211,6.172274008862693e-07,-2.6134240357826856e-08,-0.04104058255570492,0.9991574803718914,-4.878309164156625e-08,-3.391675538972302e-07,-0.25395593740167666,-0.511159025094963,-0.08955054645620392,9.799965857053166
1727705728.7051702,6.164280655703238e-07,-2.814290376828851e-08,-0.043755341973866824,0.9990422764069441,-4.71941635111732e-08,-2.0310880833071283e-07,-0.1456011294672717,-0.48999583276386416,-0.07508461680250363,9.79996695731907
1727705728.7345495,6.147261962436507e-07,-2.911737313815614e-08,-0.0449705092332926,0.998988314896085,-2.2213472486791435e-07,-8.210141678310531e-08,-0.05367086556169022,-0.3449810258912252,-0.5395844080704966,9.799965370726335
1727705729.0611064,6.148564599115804e-07,-2.941832103983999e-08,-0.04519079858895997,0.998978374001416,5.874910424661553e-07,-2.64395090155631e-09,-0.002327992187302271,-5.429508416827522e-05,1.7308880576416628,9.79997988147904
1727705729.0634837,6.234840130712714e-07,-2.982551190938454e-08,-0.045222829422143174,0.9989769245076014,5.700095137465103e-07,-2.3416058052711576e-09,-0.0020448631406028038,0.00016771499842103117,1.7307535958721905,9.79996774687871
1727705729.0911207,6.283591795151572e-07,-3.009428795676433e-08,-0.045470103162496445,0.9989656999707228,1.4140777960522154e-07,-2.8885310522470843e-08,-0.032831651848110766,0.2553167978738047,0.6165132444800364,9.799967593522608
1727705729.1173372,6.299376138482131e-07,-3.064783560798549e-08,-0.04652403591411175,0.998917170781374,1.0077384244285284e-07,-1.0022244584434839e-07,-0.08889591081734166,0.2665775844566092,0.5135725491892665,9.799971034143287
1727705729.1576097,6.299860462341742e-07,-3.192464284257521e-08,-0.048605569705264806,0.9988180507946522,-7.315079549685452e-08,-1.33973370908578e-07,-0.10571322232658278,0.017112637570828555,0.0010986007255242881,9.79997280715193
1727705729.224099,6.303103539095367e-07,-3.289091818814351e-08,-0.049926905559614654,0.9987528743892771,1.126372469011638e-08,-1.0097165466347172e-07,-0.07397491889115129,-0.14070509209250598,0.21452783104536213,9.799970980082238
1727705729.4555018,6.292467259707515e-07,-3.3520054629860776e-08,-0.05098046565049419,0.9986996506065582,-7.251174753241687e-08,-8.845482569003231e-08,-0.06989311508603369,0.006232727985432321,-0.0004712222530128911,9.799974461573653
1727705729.4682367,6.34860690217247e-07,-3.4841873547153086e-08,-0.052775794732056625,0.9986063866659352,1.254724499342772e-07,-1.2782859343506935e-07,-0.1073185108330366,0.21751907825566302,0.6013065742855435,9.799969790355592
1727705729.4956815,6.337383278802999e-07,-3.585132944127409e-08,-0.054455986990232075,0.9985161718672947,-8.1298867015411e-08,-1.4414432089654453e-07,-0.11275223352719793,0.024245604539760223,0.00047502387903739255,9.799976152333091
1727705729.5274746,6.324784586907383e-07,-3.687354781066002e-08,-0.05614624345083541,0.9984225555074153,-7.947011938267168e-08,-1.441914794631859e-07,-0.11286888352600048,0.020077844702970762,-0.001735871035682902,9.799976932963704
1727705729.6354215,6.328971450805768e-07,-3.844085167268729e-08,-0.05862445427639995,0.9982801076653747,-6.920148248491102e-08,-1.6647209758507262e-07,-0.13088701264048058,0.04708254677539232,0.03148965472764806,9.799976449981802
1727705729.6654348,6.354398403030197e-07,-3.987199111518263e-08,-0.06067368386397448,0.9981576549252973,1.4908109549301008e-07,-1.7913887427985552e-07,-0.14683190529409423,0.2286030365251438,0.6689794756313924,9.799971651241767
1727705729.892623,6.345254906780402e-07,-4.130769850939143e-08,-0.06301427844264529,0.998012625527327,-8.230838098993192e-08,-2.0214748830307118e-07,-0.15747129134580687,0.04193169643152352,0.0019483161448433845,9.799978951978565
1727705729.895207,6.229147101962811e-07,-4.2046975729273736e-08,-0.06526779750047051,0.9978677841322707,-7.617543549032366e-07,-1.8791171930978312e-07,-0.14714177482743543,-0.019809539225612915,-1.933661667388428,9.799982310049563
1727705729.9109926,6.07976583573649e-07,-4.282420480345036e-08,-0.06804123158064684,0.9976825100224105,-7.316426707795711e-07,-1.6644611622186234e-07,-0.13420122788188776,-0.02966896535692917,-1.9320964983112738,9.799983042852299
1727705730.2192338,6.009543199181904e-07,-4.3564237345875334e-08,-0.07017085472841378,0.9975349874296744,-2.2223439851546854e-07,-1.776231550368181e-07,-0.15566050199669562,0.22397869194376474,-0.5377950031759964,9.799986167414332
1727705730.2203622,5.985073459749274e-07,-4.495040258531969e-08,-0.07303261210442441,0.9973295531412094,-1.6526916833239526e-07,-2.3939880390483266e-07,-0.2080157332631105,0.23932915064958937,-0.3964345314530503,9.799982134186374
1727705730.2467487,5.951980757128674e-07,-4.748040449198626e-08,-0.07797765113221006,0.9969551072759228,-1.4956587994965047e-07,-3.148451754459374e-07,-0.2714108723700229,0.22265271038156245,-0.3794649403757011,9.79998293223186
1727705730.2750998,5.931497944868602e-07,-4.988703450706412e-08,-0.08246485007852555,0.9965939737431546,-8.053743672006727e-08,-3.6551501904817605e-07,-0.3115727075164233,0.13728345483021387,-0.21724855930947873,9.799984417759351
1727705730.305841,5.928359217963732e-07,-5.272062014390114e-08,-0.08735324532102362,0.9961773991270484,7.686518591345232e-10,-3.971892580663574e-07,-0.3363765865052828,0.08808291816622286,-0.005039727214524746,9.799983452870029
1727705730.3559203,5.924543309455082e-07,-5.680011302292629e-08,-0.09443662262855235,0.9955308756167024,-2.5397624027609422e-09,-4.427530659307429e-07,-0.38321109604161996,0.30990418321224716,0.0093642758704167,9.799984072261191
1727705730.6092513,5.920671165219006e-07,-6.039484390045724e-08,-0.1008119075331515,0.9949055026982075,-2.4845654370460208e-09,-5.214055938978133e-07,-0.44898308286257327,0.31078081912658584,-0.0034080915875977394,9.799984560238265
1727705730.6108847,5.917943785662088e-07,-6.459890446090565e-08,-0.10814344861831737,0.9941352999066992,3.804986504637112e-08,-5.978698811111839e-07,-0.5106491641394141,0.25375548871646864,0.08662788911018678,9.799985705245394
1727705730.6271427,5.914213702812743e-07,-6.922114551147106e-08,-0.11589158504063068,0.9932618690538845,6.786143374154763e-09,-6.221564172240065e-07,-0.5214424844867247,0.0203743493786744,-0.03471162573861599,9.799985471440694
1727705730.6656036,5.907902297282171e-07,-7.5442774874328e-08,-0.12625522324905591,0.9919977916316025,6.081883294512787e-09,-6.237218099508348e-07,-0.522116954679162,0.005741848182306651,-0.03810580730772578,9.79998607766712
1727705730.7395043,5.902699841127284e-07,-8.010644486055277e-08,-0.13402054803019098,0.9909785531005868,5.865014056096429e-09,-6.238000720235851e-07,-0.5221322592406452,0.005409693237721202,-0.03815727439413028,9.799986492651792
1727705730.768919,5.897102822752254e-07,-8.476549149449607e-08,-0.14177769794942374,0.9898985222555932,5.654939264974852e-09,-6.238449373842718e-07,-0.5221331821132414,0.005389842893933434,-0.03815996818077549,9.799986895201787
1727705731.0091934,5.88839188068391e-07,-9.133705002374134e-08,-0.15313715617208418,0.9882049440268812,3.240725881182519e-08,-7.085194320621163e-07,-0.599084052935906,0.16285818081964196,0.03791739296548579,9.799988022608812
1727705731.0116007,5.97592702813651e-07,-9.816135302603161e-08,-0.16178978342372313,0.9868252459170965,6.413199895484367e-07,-7.038219315733963e-07,-0.576720353529328,-0.08500263859216027,1.731586826280021,9.79998551788511
1727705731.0380313,6.060163823465357e-07,-1.0492523154126579e-07,-0.17010511244406823,0.9854259235071973,6.221367373436368e-07,-6.898585834143222e-07,-0.5549281531896675,-0.053050928684930825,1.7378571620425223,9.7999858454102
1727705731.339366,6.105932915966867e-07,-1.1247132323916656e-07,-0.18006289455552893,0.9836550991093875,1.9805703436855553e-07,-6.084306536568196e-07,-0.4734526277682549,-0.25623720056069343,0.5945370422327976,9.799986355501353
1727705731.3417358,6.139805737318425e-07,-1.1752064430916593e-07,-0.1864843705210621,0.9824579276238614,2.238028679103352e-07,-5.378760500662862e-07,-0.4147600228975053,-0.2338270609208128,0.7044831424883546,9.799986301203376
1727705731.3447058,6.15532224912981e-07,-1.21644402250436e-07,-0.19188724684301017,0.981416977894012,1.3027247110455135e-07,-4.503056941755797e-07,-0.34313755542939817,-0.25733259553639315,0.47099180705113614,9.799988155005577
1727705731.3783991,6.153305262560587e-07,-1.2487717214794394e-07,-0.19671383118226565,0.9804609470148216,-5.820115658008245e-08,-4.13849904083287e-07,-0.3254156130509348,0.04684170794243311,0.0024380302363878788,9.799988712239617
1727705731.4186795,6.140588692672074e-07,-1.288763151127279e-07,-0.20310683937475837,0.9791565818595116,-6.146709993977977e-08,-4.143616558550501e-07,-0.32689015424665535,0.06987301639245323,-0.005983405032711429,9.799989625320183
1727705731.4841075,6.137412146441354e-07,-1.3201837185948249e-07,-0.20782576399515174,0.9781658610989434,1.9223590761295143e-07,-4.042143381864435e-07,-0.3104954661539705,-0.163992505427548,0.6618732525526015,9.799994463254244
1727705731.5067463,6.125114885150946e-07,-1.3475140491309656e-07,-0.21225931573698653,0.9772133763321462,-6.34010556051253e-08,-3.8198961734516977e-07,-0.3013416522325073,0.05808693282888393,-0.010279783449398193,9.79999044861124
1727705731.77589,6.063168441868367e-07,-1.37035114182743e-07,-0.21736830163654575,0.9760896585064598,-5.405594848475842e-07,-2.977852535841751e-07,-0.22952650443769448,-0.15628626801335543,-1.3701211112769829,9.799987653852567
1727705731.7883148,6.020130612873817e-07,-1.3805298388222414e-07,-0.22007209051720605,0.975483610818247,-1.6455842386211202e-07,-2.1597581397788102e-07,-0.16697307118863142,-0.16730098110769084,-0.3535398046389222,9.799994215681568
1727705731.8186588,6.009133413499657e-07,-1.3935968118028747e-07,-0.22244448777499592,0.9749453573704214,-4.6037163970745206e-08,-1.994761562896686e-07,-0.1616089113384082,0.02350917246941822,-0.005106602601908479,9.799991520746541
1727705731.9287496,5.973580268223474e-07,-1.4054854482415928e-07,-0.22552125215207458,0.9742382484933465,-4.744832849289615e-08,-1.9136746584445886e-07,-0.15603565359644297,0.020401811563480584,-0.0263350143333368,9.799992823441293
1727705731.9586887,5.964698704425446e-07,-1.418093291824732e-07,-0.2277993149092219,0.973708104170091,-3.816019221088321e-08,-1.908342505930357e-07,-0.15591643344850642,0.02460501457228101,-0.00343046957489999,9.799992059036862
1727705731.9858038,5.938490825074727e-07,-1.4258782107536247e-07,-0.2299052497115589,0.9732130168440477,-3.9843439502261116e-08,-1.7428365078829632e-07,-0.14282831254944556,0.010796722862534932,-0.02184075346108829,9.799993087054103
1727705732.1626704,5.99108063066363e-07,-1.4516876023729847e-07,-0.2319388113308556,0.9727303777502015,5.848725066645774e-07,-1.6912865131098035e-07,-0.13608342412242805,-0.023122643978626553,1.7198221953429595,9.79999027336454
1727705732.1882155,6.045007805243995e-07,-1.4815027302434047e-07,-0.23450417468395346,0.9721151125537604,-3.864868636614986e-08,-1.646371585862247e-07,-0.13269263276015536,0.037625958508032645,0.049259913653289696,9.799990537576722
1727705732.217602,6.034127492313179e-07,-1.491594563673114e-07,-0.2364415962266052,0.9716457026989974,-5.535239400446732e-08,-1.651304697318181e-07,-0.132922968903194,0.029556959778782615,-0.0022595315454462038,9.799993026403437
1727705732.4620864,6.067840825925267e-07,-1.5125517573051386e-07,-0.23831171488608266,0.9711887182971513,2.3922419844968834e-07,-1.5781551239868959e-07,-0.1222070748126703,-0.07709211143698716,0.8126544973755373,9.799985694145382
1727705732.4844928,6.059997477489587e-07,-1.5257020883044646e-07,-0.24050148844706992,0.9706487696661203,-4.855046032044854e-08,-1.3183569949091876e-07,-0.10408035295898972,-0.02004827152401286,0.02966829353946668,9.799991823465009
1727705732.5129006,6.048935795367683e-07,-1.532845538889218e-07,-0.24200017281557268,0.9702762062200864,-6.041806842711516e-08,-1.2783316726758681e-07,-0.10281910028661273,0.02476184911036466,-0.0014865390715415835,9.799993695925444
1727705732.5430381,6.034678042112648e-07,-1.538685753538667e-07,-0.24334980376992377,0.969938592388586,-6.698137431058344e-08,-1.0852107642743873e-07,-0.08588185628607377,-0.029294929109700555,-0.03278293323980636,9.79999501496881
1727705732.606201,6.021142337913109e-07,-1.5459804253453418e-07,-0.24499059367626003,0.9695254555759569,-5.571117231662547e-08,-1.0408964582172647e-07,-0.08447299354025374,0.020652369950733107,-0.0010307316845945952,9.79999412818221
1727705732.6363285,6.016432374759682e-07,-1.552230583737073e-07,-0.24609002533386837,0.969246975456096,-5.3311778571478277e-08,-9.188641330838782e-08,-0.07455600953353127,0.010925772668025231,0.0030831152423415648,9.799994081654779
1727705732.8797767,6.045605763104039e-07,-1.5665502953829695e-07,-0.24703437395062594,0.9690067172555783,1.996485876796815e-07,-7.475177963282043e-08,-0.05133181336475111,-0.23102223348394244,0.6820674915509486,9.79998785971864
1727705732.8832843,5.936001307902163e-07,-1.5430415212454036e-07,-0.24774904186151547,0.9688242421906694,-7.393691854060691e-07,-5.758472669285406e-08,-0.04811183034818302,-0.0038721803045333753,-1.9246316232668017,9.79999713310344
1727705732.9177299,5.861730503332423e-07,-1.5311753977501723e-07,-0.24920991952838606,0.9684494906851302,-2.1944942851016065e-07,-1.1267123548853009e-07,-0.10494858014710529,0.3005476732912133,-0.499362141820315,9.799995821202161
1727705733.0000834,5.780021148955404e-07,-1.5208433436826117e-07,-0.25098606933045664,0.9679906988198235,-7.079849813722617e-07,-1.4413638293231122e-07,-0.11952542855325951,-0.01901769622949214,-1.9305963926552552,9.799997438936149
1727705733.0341954,5.676762414325736e-07,-1.504516764718108e-07,-0.2526435568290348,0.9675594210137326,-6.868720869136858e-07,-1.315429485183622e-07,-0.11155331315369584,-0.02498627049845442,-1.9296944934977842,9.79999754267732
1727705733.081554,5.59166874062662e-07,-1.4952975574873512e-07,-0.25495633160919995,0.9669525681087178,-1.5103654877116e-07,-1.4826763485330675e-07,-0.1390507339918603,0.24139418972999654,-0.4695820765099757,9.799997340479827
1727705733.277943,5.5848737147381e-07,-1.5072576260002277e-07,-0.25756905043494877,0.9662598947786791,3.114048577513013e-08,-2.1923645006288959e-07,-0.20392673132358316,0.3340555050405188,0.03683462595177005,9.799995416998815
1727705733.3000708,-5.565558297676633e-07,1.521591211099486e-07,0.26101828807454885,-0.9653338558707545,-1.1064017491964657e-07,-2.8213515023718706e-07,-0.25405977109865296,0.22620993265554806,-0.3805653586402209,9.799995999960394
1727705733.3551354,-5.548711852135669e-07,1.549526732073964e-07,0.26650387152091576,-0.96383384795515,3.3176273322638704e-08,-3.349320205494847e-07,-0.2922571989798376,0.024078619966967748,-0.02337721523418653,9.799996429951934
1727705733.6345437,-5.578689767116831e-07,1.584703163921001e-07,0.270907890951158,-0.9626052745648441,6.9297174201794e-07,-3.591932230907081e-07,-0.3071103776018928,-0.10752375580249031,1.788580193676554,9.800006774311685
1727705733.641613,-5.667918239334555e-07,1.6374126984003625e-07,0.27513108019061916,-0.961406723875382,6.380828612227604e-07,-3.4092257719103286e-07,-0.2861827189338883,-0.0700388832000029,1.699380767545605,9.799993208853289
1727705733.663707,-5.751135072916906e-07,1.6876120327592957e-07,0.27908421160899416,-0.9602666311135812,6.190872945689838e-07,-3.258408859965371e-07,-0.26837029248258587,-0.05530653758757715,1.7018270827244024,9.799993977677035
1727705733.7058256,-5.858107636266058e-07,1.7521900262454067e-07,0.28396058274767844,-0.9588359543974271,5.94631156156439e-07,-3.0541928185900685e-07,-0.24571406422719383,-0.0350834053013918,1.7051811604007083,9.799994089434344
1727705733.7699187,-5.891230380080745e-07,1.7854087804809402e-07,0.2873082797666595,-0.957838166068331,-2.8675943977208984e-09,-2.8468209337925636e-07,-0.22783749041375959,0.013170240848889996,0.09583322021519465,9.799991550385753
1727705733.8002574,-5.813273123863322e-07,1.7838875832429193e-07,0.29049789598875864,-0.9568756305945588,-7.294277369546052e-07,-2.7003309087683604e-07,-0.21714517105402664,-0.021595139995212388,-1.9429709768461445,9.799999019822858
1727705734.0173337,-5.702441366006647e-07,1.7789852960306693e-07,0.29491558188447026,-0.955523311887987,-7.07732443456085e-07,-2.783533642658635e-07,-0.22851200339512637,-0.035297395513679136,-1.9444437444893425,9.799999113267269
1727705734.029749,-5.597223055482427e-07,1.7671976456325004e-07,0.298042710158525,-0.954552535443187,-6.866310468497907e-07,-2.542588604811857e-07,-0.2132254612144142,-0.04879452920974644,-1.942420941005704,9.799999166151919
1727705734.0611584,-5.553512289284181e-07,1.773375311607794e-07,0.30131567933700776,-0.953524441944378,-1.3795716001711707e-07,-2.7331650032817023e-07,-0.24344676676430352,0.2280780382178013,-0.42171104952488253,9.79999841754077
1727705734.1626017,-5.519627761853322e-07,1.7947666645626498e-07,0.306673582285982,-0.9518147476938703,-1.202963655342593e-07,-3.419385097061574e-07,-0.3031204024984714,0.21996266640746287,-0.3955993477727642,9.799998078745071
1727705734.1950855,-5.494908711763684e-07,1.8155980990173657e-07,0.31142397202496336,-0.9502710716673742,-1.1581175620920952e-07,-3.928583650500278e-07,-0.3477637058679171,0.2151019034931691,-0.3996674612999335,9.799997505123967
1727705734.2235484,-5.471970556801064e-07,1.8410005225914564e-07,0.3168077923142292,-0.9484897588949766,-8.249894907401892e-08,-4.438011657175942e-07,-0.39149977339451664,0.18231315651012966,-0.3274731291703236,9.799997987163975
1727705734.4696522,-5.495640747735345e-07,1.8851729363808987e-07,0.32242508841455597,-0.9465949832745408,6.906080266828413e-07,-4.5689883743971464e-07,-0.3908504072352691,-0.10782729705566642,1.7745066197758408,9.800008183501353
1727705734.4728491,-5.606854019191986e-07,1.9708934055554891e-07,0.3294706502701567,-0.9441658173277652,6.290516492823765e-07,-4.3479740402078816e-07,-0.36262848246891327,-0.05859211463977568,1.6875776844587123,9.799994525920024
1727705734.5176153,-5.665677708322775e-07,2.0258637989125882e-07,0.3345149321546258,-0.9423904499543827,2.661874964591694e-07,-4.302951937819619e-07,-0.36058801979664085,0.16127788977583563,0.7615525531751345,9.799990240229373
1727705734.7864215,-5.635834415690633e-07,2.051401740458047e-07,0.3398916499080275,-0.9404646013127974,-7.129541513472822e-07,-4.670088939229643e-07,-0.3818311559889473,-0.012017615058609009,-1.967166389111997,9.799982864624738
1727705734.7904704,-5.545994501073799e-07,2.0650158902022307e-07,0.34628808615500206,-0.9381282222525638,-2.4186244407341954e-07,-3.772946983342431e-07,-0.3026629567601774,-0.3428139568777294,-0.7480438004008488,9.799999219207363
1727705734.812874,-5.504403058831633e-07,2.0759671226835382e-07,0.34980520308957525,-0.936822459109043,-2.3120257564145795e-07,-2.8064888398203876e-07,-0.224074337699708,-0.3457211609776156,-0.7271811223109339,9.799998599833131
1727705734.8447795,-5.467340328576162e-07,2.0808477447672097e-07,0.35224197695576565,-0.9359089644137144,-2.144483127301625e-07,-1.8883503546505638e-07,-0.14863250745235523,-0.3376555398575616,-0.690705245947283,9.799998660169145
1727705734.9126523,-5.42533917224e-07,2.078939433396471e-07,0.3539054290342353,-0.935281212951354,-1.9155356447693535e-07,-7.527184416183102e-08,-0.05386312277332493,-0.32198055007425,-0.6429803383483138,9.799998682779613
1727705734.9436355,-5.417987493144714e-07,2.080057514655938e-07,0.35471926419573446,-0.9349728571504627,2.7805163892332447e-08,-7.845373130703913e-08,-0.08466342923819119,0.37058641850069085,0.05019956521082526,9.799997821944947
1727705735.1683962,-5.424261214041953e-07,2.0919444547704683e-07,0.35656828969442855,-0.9342692624634784,2.5455883071302346e-08,-1.6207667757000057e-07,-0.15496415970298044,0.3478875704534858,0.04316045660719453,9.799995488100606
1727705735.175349,-5.420586442346942e-07,2.106732850896674e-07,0.35939607446997607,-0.9331851164989897,-1.3745972444302001e-08,-2.452245160588747e-07,-0.22395143790178046,0.30141027280145016,-0.07530901401732748,9.799997337057345
1727705735.215778,-5.400774891399543e-07,2.129338964164455e-07,0.36417707014038814,-0.9313297276387271,2.286389379602193e-08,-3.0542709661337055e-07,-0.26496588296780316,0.026611020505154258,-0.023138750746470576,9.79999884582811
1727705735.247887,-5.39635148825219e-07,2.1522772075555753e-07,0.36788415334336394,-0.9298716307741078,2.812993380599537e-08,-3.076272882594994e-07,-0.2656404882004213,0.0019376769535147578,-0.009840648693665674,9.799998155098372
1727705735.2779126,-5.391743960400126e-07,2.1752155735446403e-07,0.37158657584858656,-0.9283983071121924,2.7292737129704637e-08,-3.079267327908095e-07,-0.26565490637482003,0.0014120637979994886,-0.009868399752408313,9.79999820835352
1727705735.3195279,-5.384308194847509e-07,2.207166366345031e-07,0.3771233080606305,-0.9261630582770337,2.3868401487662303e-08,-3.7069041672514233e-07,-0.33143600413626606,0.30915962996861585,0.017965211785896502,9.79999824585459
1727705735.5255277,-5.376002501377286e-07,2.2367924973108687e-07,0.38233095509710613,-0.924025454613776,2.303405698752355e-08,-4.479562727861429e-07,-0.39721130843959707,0.30996185298865137,0.006817116239241142,9.799998310297
1727705735.552572,-5.366828992748563e-07,2.2724337858393042e-07,0.388373219659011,-0.9215021661674778,4.6244980420948596e-08,-5.183628264609891e-07,-0.45003238171968896,0.13800737665258273,0.038513487878960674,9.799998535387154
1727705735.6257486,-5.351573594361797e-07,2.3235024776549479e-07,0.39674722176665034,-0.9179279067661599,2.7903769398164055e-08,-5.322845279566053e-07,-0.4560739132725047,0.00728476105593809,-0.028505939123924864,9.799998461994122
1727705735.8830569,-5.33910117179314e-07,2.3615953927421722e-07,0.40311939001529457,-0.9151473965396808,1.9859017062440742e-08,-5.441682902863392e-07,-0.47812142941856145,0.31158463367069617,-0.009723278384154906,9.799998376327189
1727705735.8871403,-5.324065713400484e-07,2.4026861205009047e-07,0.41027209744177423,-0.911963160473265,1.9221666315770102e-08,-6.216747164352427e-07,-0.543886942512186,0.31254575057729844,-0.025473587165644067,9.799998554073333
1727705735.91559,-5.308961662179248e-07,2.4502117045439656e-07,0.4182252096888115,-0.9083433678848586,5.0841594541716476e-08,-6.912620758878628e-07,-0.5955621389294175,0.13647439878934803,0.025164366726649793,9.799998586552027
1727705735.957484,-5.284924048749316e-07,2.516598332839361e-07,0.4291060162551654,-0.903254131910438,2.9461168772528037e-08,-7.050200862009422e-07,-0.6014134531752928,0.010205141076500942,-0.05001661885362273,9.79999867779897
1727705736.0195594,-5.265901098216155e-07,2.566264398986136e-07,0.4372384036212883,-0.8993456390055851,2.849167605114347e-08,-7.058149549300497e-07,-0.6015461901395905,0.007325339863843905,-0.05062746269127443,9.799998723878721
1727705736.0489397,-5.275223116927688e-07,2.630081536899165e-07,0.44530188330550136,-0.8953804960597622,6.734387018900943e-07,-7.030943044376478e-07,-0.5940330530610896,-0.10754682736344881,1.7264503210192466,9.800009410423202
1727705736.2967925,-5.357110478228523e-07,2.7495290350359164e-07,0.4555385963746457,-0.8902160340123373,6.47686732562487e-07,-6.799659607935579e-07,-0.5600527727499972,-0.06502643778911361,1.736353748575513,9.799998357989843
1727705736.3015401,-5.416831316943393e-07,2.837745541292795e-07,0.46281646339474747,-0.8864541280914677,5.940273399674118e-07,-6.670006459337533e-07,-0.5400051041600548,-0.014503062142794843,1.649764907686934,9.799995978186502
1727705736.3248856,-5.442519495696982e-07,2.908305484037431e-07,0.46999850509119645,-0.8826672109077462,2.095637113311145e-07,-6.778532448625302e-07,-0.5495942475544899,0.2286642724207159,0.6545784059919041,9.799995976473216
1727705736.364273,-5.434508814588122e-07,2.985130645875869e-07,0.4801479279925667,-0.8771875325402545,6.371208550542923e-08,-7.377316530230652e-07,-0.5937888284633325,0.2598894774743337,0.2603793182234143,9.799997221135325
1727705736.3942196,-5.415774056515709e-07,3.0402019755247805e-07,0.48809843140723286,-0.8727885890967026,-2.4924449658579147e-08,-7.630010632337573e-07,-0.6074192367368338,0.1452319365400248,0.0009610808608722641,9.799997829683605
1727705736.42957,-5.397540172054648e-07,3.096836248397449e-07,0.4961267975518623,-0.8682500796144772,5.527678513266913e-08,-7.785432735555897e-07,-0.6197537731615694,0.1761420107099939,0.2282800318801146,9.799995383351435
1727705736.6512663,-5.365597753221789e-07,3.146779752298046e-07,0.5041618075491922,-0.8636092124383251,-2.8176419298122455e-08,-7.784292105884109e-07,-0.6174367741052189,0.12270618897983289,-0.009392898903304128,9.799998883156759
1727705736.692811,-5.421804439639011e-07,3.271073693116537e-07,0.5145642358527426,-0.8574518337381302,5.490900135881641e-07,-7.67119518114191e-07,-0.5967115586005016,0.08710317363164166,1.6356156399179678,9.799996834125585
1727705736.7264128,-5.434539135670659e-07,3.347179738187876e-07,0.5222516110179858,-0.8527914485902817,1.6563713256127655e-07,-7.795409090186017e-07,-0.6070449711934712,0.33316010228228254,0.6403787557337206,9.79999449345857
1727705736.9980283,-5.413377471148522e-07,3.4058269530162815e-07,0.5301980382671125,-0.8478738350823761,-1.613846103608645e-08,-8.140206773422075e-07,-0.6265957303475744,0.23444984187946552,0.12612887979817217,9.79999648380461
1727705737.0047996,-5.411400027663176e-07,3.5023444378289593e-07,0.5406701373980118,-0.8412346893261116,-5.347441032793028e-08,-8.129265405147123e-07,-0.6189645198539355,0.22867189536199942,0.050732408206439754,9.799996812292758
1727705737.0334992,-5.353943381210872e-07,3.540022172492941e-07,0.5486671339780527,-0.8360408937916239,-9.90037908237996e-08,-8.333607070007816e-07,-0.6386793839463817,0.26485103063199206,-0.08959517005359557,9.80000010764479
1727705737.0645988,-5.308345376499545e-07,3.58612306862021e-07,0.5566638307158664,-0.8307378524976015,-8.292653665097763e-08,-8.340721601737949e-07,-0.6398671305010634,0.23967400320059945,-0.05565001659720461,9.799999261663144
1727705737.1360433,-5.228687716711863e-07,3.6352916863386024e-07,0.5674420513842681,-0.8234133338247613,-1.0514049381783137e-07,-8.507137561937394e-07,-0.6578464522167596,0.25907942321419125,-0.13903114253311444,9.80000122236707
1727705737.1723638,-5.190408385626254e-07,3.687639475088392e-07,0.5755829908094362,-0.8177433709241909,1.2128137120318974e-07,-8.561545017079952e-07,-0.6670195088454827,0.35034918023710204,0.4934202371940257,9.800002479683451
1727705737.3975227,-5.147773926911518e-07,3.7380669350607683e-07,0.5837567743674441,-0.8119285857633738,-5.9355489813343454e-08,-8.642999275979851e-07,-0.6683379343944114,0.23724760028858016,-0.023085018255776957,9.799999044757184
1727705737.3988717,-5.108313543837378e-07,3.791133891693556e-07,0.5919388357131662,-0.8059828873953444,-5.3310603110500844e-08,-8.718175174210477e-07,-0.6744632604231228,0.2477856673479686,-0.007130811639068964,9.799998758424564
1727705737.4314766,-5.038471870487494e-07,3.8496209180648505e-07,0.6028261039716089,-0.797872601591262,-7.66487173358993e-08,-8.771157859263362e-07,-0.6816535409928778,0.2628529121252984,-0.08171409272194943,9.799999858326272
1727705737.4620209,-4.990066548520249e-07,3.8965925010009837e-07,0.61095729340701,-0.7916635558318823,-6.75765580910577e-08,-8.764671613249572e-07,-0.6821249186720842,0.25275760843082223,-0.06306716001269617,9.799999412635906
1727705737.4961343,-4.939594339823921e-07,3.942070286284317e-07,0.6190919755303503,-0.7853184868787495,-6.733392203779877e-08,-8.8267334137911e-07,-0.6887833356130916,0.26290032494268545,-0.06883122154274153,9.799999564365498
1727705737.5321136,-4.873214512672117e-07,4.003384278106305e-07,0.6298340346903104,-0.7767297398357597,-7.167195688720842e-08,-8.776521328187788e-07,-0.6854441882234554,0.22990034429405112,-0.09074343191779334,9.799999657415034
1727705737.7450857,-4.824918812814946e-07,4.0496867458219996e-07,0.6377643687526328,-0.770231530092841,-5.3887113285430043e-08,-8.720091919711267e-07,-0.6826610512894898,0.23959796303888964,-0.04298779697271043,9.799999463748774
1727705737.7743068,-4.837743252853737e-07,4.146483423850782e-07,0.6455439412914333,-0.763723130369584,3.4398416673018074e-07,-8.70558627813066e-07,-0.6769755296971389,0.3115045055691253,1.1001280730589367,9.79999412804034
1727705737.839913,-4.786652461134845e-07,4.2205199028929364e-07,0.6559447017833959,-0.7548089481464064,1.866468849213868e-07,-8.882181486661063e-07,-0.6901437086051505,0.37443041948275324,0.677442833662366,9.800003391999585
1727705738.1219819,-4.7370508987546334e-07,4.267722210164416e-07,0.6637504914603786,-0.7479540661602818,-6.593131779174178e-08,-8.967937001129261e-07,-0.6924419304862993,0.2925751400662117,-0.03290607045623651,9.799999240373724
1727705738.1240315,-4.7319742100421096e-07,4.353953201857362e-07,0.671246947052775,-0.7412337931259716,2.6671408645456175e-07,-8.643254706136573e-07,-0.6542168227698797,0.06226472979700994,0.8880716368813699,9.799998260238405
1727705738.145225,-4.689894476371234e-07,4.402379961933585e-07,0.6783146519066475,-0.7347715515780056,-8.083678251780833e-08,-8.315506281585711e-07,-0.6349218211598505,0.26195792922901867,-0.02943544041121086,9.799998482291592
1727705738.189123,-4.618009410153755e-07,4.4496985949640325e-07,0.6875261159402242,-0.7261596517982378,-1.0306168494964616e-07,-8.185838308858674e-07,-0.6278521428314255,0.27230919636784384,-0.09635798696636226,9.799999633441116
1727705738.2518737,-4.564816880938925e-07,4.484454322034213e-07,0.6942964859228368,-0.7196890923411239,-9.611203023383602e-08,-8.094515413970134e-07,-0.6226922671480237,0.2716067617020742,-0.08262984569796542,9.799999714487388
1727705738.2803679,-4.515112678999088e-07,4.5215656267492376e-07,0.7009735818667236,-0.7131872387560837,-4.328342053236118e-08,-8.045167991698633e-07,-0.6213554432796491,0.29784206670246544,0.06233589768324181,9.80000014579935
1727705738.506866,-4.447992787404242e-07,4.569524804330384e-07,0.7097641766392487,-0.7044393611654608,-7.443131255139393e-08,-8.005167596266753e-07,-0.6190530705121012,0.2825828144277362,-0.031403598670544354,9.799999580742732
1727705738.5091753,-4.427807050650839e-07,4.6333638846251354e-07,0.7159436200959248,-0.6981581001775538,7.088733505686036e-08,-7.527180906248499e-07,-0.575311511041931,0.15016175821428185,0.378421549460051,9.799995124372868
1727705738.518738,-4.384269110091575e-07,4.669256898436647e-07,0.7218494938705714,-0.6920500763661469,3.287862394332961e-08,-7.314458911380827e-07,-0.5606492325644711,0.1774266492760168,0.28048180885252344,9.800001491622371
1727705738.5584667,-4.3200801174572627e-07,4.7074054648704396e-07,0.7294708629243346,-0.6840118859669166,-9.860613830943145e-08,-7.13380875828141e-07,-0.5508646637747362,0.250294609860649,-0.07523932992938114,9.799999667166691
1727705738.5991764,-4.275881620660825e-07,4.7392808641226e-07,0.7351183049581737,-0.6779388451143761,-7.143997945857439e-08,-7.136769893569158e-07,-0.5524946005647567,0.26967182191653666,-0.0014865825622606894,9.799999349170657
1727705738.6228998,-4.2288819303627933e-07,4.7677944823909026e-07,0.740694690528785,-0.6718417785625281,-7.507502411316666e-08,-7.092547588343452e-07,-0.5499724915321308,0.2652012118210478,-0.016706387363248656,9.79999963356546
1727705738.6519256,-4.111670682140957e-07,4.716560585506646e-07,0.7461309010598919,-0.665799277923281,-7.726592846472772e-07,-6.842726838191385e-07,-0.537735578252445,0.2025812425096592,-1.999014125531678,9.800002274672957
1727705738.900641,-3.962536612531569e-07,4.6482029556332753e-07,0.7531062389072811,-0.6578989230258369,-7.423196716174613e-07,-6.431316196884864e-07,-0.5203315037883275,0.1488484102826523,-1.9952621710113552,9.800002219964275
1727705738.9328728,-3.8559094106162284e-07,4.596951751000036e-07,0.7581283741347694,-0.6521053353035927,-7.202822797756213e-07,-6.126110223582445e-07,-0.5064931501017769,0.11018527537275966,-1.9923152526774115,9.800002180232017
1727705738.9737122,-3.753640284747295e-07,4.5457592273121217e-07,0.7629675929468485,-0.6464367348105646,-6.988435748189591e-07,-5.824219368772425e-07,-0.49201109304526847,0.07308154094957672,-1.9892733431316618,9.800002141605678
1727705739.2184741,-3.749001383921245e-07,4.6280812429234063e-07,0.76912470687068,-0.6390987288993271,6.201311048942046e-07,-5.580326333659534e-07,-0.4708972615390537,0.04414233998770646,1.6669745928690876,9.799997558899927
1727705739.2346253,-3.775437000624823e-07,4.725136517664101e-07,0.7735195398651594,-0.6337724524199723,6.017275021024697e-07,-5.491478322817317e-07,-0.45512763848051063,0.06538740141601047,1.670625124992839,9.799997536995102
1727705739.2664824,-3.7999546576162066e-07,4.819880143007522e-07,0.7777310399649748,-0.6285971917489147,5.83850684600274e-07,-5.397202234143193e-07,-0.4397083067907517,0.08502813055863283,1.674052270234861,9.799997515745336
1727705739.339638,-3.817360029177131e-07,4.926541770178638e-07,0.7829881081417965,-0.6220366729608005,2.8895373914946374e-07,-5.087450187546387e-07,-0.39932683519121415,-0.08265893649558807,0.8970695583535263,9.799995775526801
1727705739.368002,-3.798116484961381e-07,4.958862798103381e-07,0.7862413902329934,-0.6179194739479404,-8.882375231431733e-08,-4.1903373874612096e-07,-0.31944663764648396,-0.3126388440985087,-0.15151721401712961,9.799995011570727
1727705739.399025,-3.770163949242649e-07,4.968964941511831e-07,0.7890094598312759,-0.6143810481259728,-6.134125562195404e-08,-3.6750847711602797e-07,-0.2970311218684525,0.11547421346971655,-0.014661033181927567,9.79999976076404
1727705739.6111348,-3.764202426883185e-07,5.005019526195122e-07,0.7915796901955677,-0.6110659490345511,1.9193704583791626e-07,-3.356763127219591e-07,-0.2602342496112597,-0.17713796342243865,0.6572504325147378,9.79999559585659
1727705739.6268213,-3.750254417736046e-07,5.033375841032191e-07,0.794299752198308,-0.6075260518342507,-6.329792294545259e-08,-2.643470952422566e-07,-0.21473697548436646,0.08349444988802888,0.007872893477860046,9.799999001562284
1727705739.65843,-3.728935858531214e-07,5.037156107508884e-07,0.7962480184566483,-0.6049703241510846,-6.746069434541875e-08,-2.6240997238341103e-07,-0.2141838773559019,0.1026913572774917,-0.0061787817357708795,9.799999763608536
1727705739.6883318,-3.716452467830669e-07,5.052553208972618e-07,0.7981713391992529,-0.602430504938518,2.2281684099946204e-07,-2.5925531785670565e-07,-0.20882896429293793,0.02721555998271038,0.7830383588251763,9.800004464162424
1727705739.726889,-3.6901563538884466e-07,5.058875124389469e-07,0.8006582640656323,-0.5991213100725227,-6.617951451782634e-08,-2.5317277014499687e-07,-0.2067920946484544,0.1010236981466964,-0.005490638635663498,9.799999768019156
1727705739.7593808,-3.6736223740128333e-07,5.064530145849641e-07,0.8022311971972284,-0.5970134891634444,-6.37253399386591e-08,-2.0903757348264145e-07,-0.17158461785703388,0.05727327988383905,-0.0038768210482781674,9.79999961670783
1727705739.9884584,-3.660697394645229e-07,5.070638791970884e-07,0.8034963753141635,-0.595309646198186,9.490456273526911e-08,-1.511079716958016e-07,-0.11493698502162901,-0.2619235391178762,0.3896797766358462,9.800002944316315
1727705740.0667017,-3.6532500921070194e-07,5.076949376557093e-07,0.8045066551756815,-0.5939436351857352,-6.286458421515788e-08,-9.170761206860407e-08,-0.08203684048813936,0.05618403349281383,0.004968168583484657,9.7999996369977
1727705740.0949762,-3.6427011639237273e-07,5.073123433359205e-07,0.8052402657992068,-0.5929486607921742,-6.233187726206001e-08,-9.315935849231095e-08,-0.08245727150526883,0.041688426388071895,-0.0008633115867176657,9.799999804751518
1727705740.3295422,-3.632560571693559e-07,5.069298014225174e-07,0.8058933409481092,-0.5920607426735076,-6.044047760872442e-08,-7.612605511089995e-08,-0.06734439292295837,-0.010694735276935359,-0.007195253851663378,9.799999835430782
1727705740.3354683,-3.6239467911255187e-07,5.064408520017246e-07,0.8063819591781322,-0.5913950759954374,-5.848537888340547e-08,-5.6839692659201584e-08,-0.05358354036277238,0.016220357175380323,-0.0021838377027741584,9.799999832231183
1727705740.3784597,-3.612668903822996e-07,5.05651734897831e-07,0.8069879363238615,-0.5905679221117321,-5.631813918161839e-08,-5.2383724739166053e-08,-0.050236533151452274,0.022696561443019205,-0.002358868138826911,9.79999989972463
1727705740.402216,-3.605940965237391e-07,5.052721620414041e-07,0.8074131308221948,-0.5899864711800737,-3.1862244761363826e-08,-4.863167319481841e-08,-0.043706544445799266,-0.06544677934812781,0.04865422771145029,9.80000019713173
1727705740.4791975,-3.599399307127128e-07,5.047903265035457e-07,0.8077804719623464,-0.589483425649869,-5.256045395592213e-08,-4.1311021935997984e-08,-0.04126611152506891,0.01876774857569924,-0.00033686530186787753,9.799999827106904
1727705740.5188043,-3.5911852777518937e-07,5.041687441971897e-07,0.8082422802015818,-0.5888500798116311,-5.0580681550540634e-08,-3.8632052486208335e-08,-0.03898548321247459,0.019033577704364257,-0.00022874868701090628,9.799999838497852
1727705740.7297146,-3.5858330600573394e-07,5.036791653059761e-07,0.8084198256323507,-0.5886063077509255,-4.713254616163776e-08,-3.066485085832257e-09,-0.0069316867088580454,-0.09746710041245896,-0.009770832414145721,9.799999835629498
1727705740.7347178,-3.5825002374817107e-07,5.030369471551709e-07,0.8084587617367045,-0.588552827340735,-4.730772957520583e-08,5.3361348564302835e-09,-0.004109454456165881,-0.0001231160356560112,-0.0003022905594348361,9.799999850323154
1727705740.7741857,-3.578636912721899e-07,5.021770603406801e-07,0.8084494069325923,-0.5885656772442303,-4.536460376615187e-08,1.4056559477457239e-08,0.003187183800958357,-0.007190481571300499,-0.0008209678066469633,9.799999858896024
1727705741.0288393,-3.5762004843143847e-07,5.015287049193371e-07,0.8084046594952609,-0.5886271370791292,-4.40468733942103e-08,1.7315797650555237e-08,0.007919019882292842,-0.05709847382832314,-0.007806119042077081,9.799999864754966
1727705741.0365038,-3.574272469029767e-07,5.008689157806971e-07,0.8083230103646559,-0.5887392554557931,-4.2619208405502756e-08,2.1577998930133175e-08,0.00940485127590264,-0.005847380730511012,-0.00016709888501555988,9.799999864830838
1727705741.0666785,-3.572826196629601e-07,5.001976116390357e-07,0.8081750399617851,-0.5889423611716084,-4.126090383982168e-08,3.145314819955935e-08,0.01762907042696484,-0.01515606777044156,-0.0009675965451517185,9.79999987195895
1727705741.107634,-3.571542741900832e-07,4.992926147589421e-07,0.8079337703514899,-0.5892733005365582,-3.9579233357056275e-08,3.831675455385301e-08,0.023834369303017952,-0.029659602756962986,-0.0026853635585461187,9.799999883315978
1727705741.1390378,-3.5710819960955183e-07,4.986042106813872e-07,0.8077191221288277,-0.5895674853204336,-3.835311605618253e-08,3.952047687198568e-08,0.02433078175969132,-0.01253665288005029,-0.00011408006024398724,9.799999877521811
1727705741.169055,-3.5714368915186895e-07,4.978766800409145e-07,0.8073670187927539,-0.5900495716169324,-3.7016236205325896e-08,6.047267745087052e-08,0.04164335225235942,-0.03414971815738706,-0.002195471793401622,9.799999889152765
1727705741.42193,-3.57341126863344e-07,4.968009853895965e-07,0.8066620271288314,-0.591013006614939,-5.297644397670795e-09,1.050412086685723e-07,0.08438606778749914,-0.22981027108454893,0.05365277438690157,9.800001126270386
1727705741.4499056,-3.5783160429224915e-07,4.958274449383923e-07,0.8058715859093522,-0.5920903537666964,-3.3655205850572144e-08,1.2082657638397478e-07,0.08964100670040118,-0.048715544096040994,-0.0013968937790675873,9.799999882656223
1727705741.4795244,-3.5829084786829873e-07,4.948657812691935e-07,0.8051496620560399,-0.5930716834335217,-3.285914411642568e-08,1.0906851899663381e-07,0.08021344100550312,-0.03270181571745608,0.0002819702162135982,9.799999888854444
1727705741.5199199,-3.547599506690305e-07,4.880844015940209e-07,0.8042144820356594,-0.5943391850481945,-7.185359042368974e-07,1.0487756818619423e-07,0.07663255943886038,-0.016996499848597014,-1.9208481388671301,9.80000235070446
1727705741.5810776,-3.491417049829835e-07,4.790939248937432e-07,0.8035600181474667,-0.5952237371228497,-6.971821259090666e-07,9.65384122859944e-08,0.07174384987455028,-0.01138379065291806,-1.9206603495795052,9.800002309371505
1727705741.6089978,-3.4364828967242353e-07,4.704013091676513e-07,0.8029469180595924,-0.5960505404563129,-6.76457459155262e-07,8.879438504075197e-08,0.06708517510403973,-0.006411663929744533,-1.9204870196991002,9.800002268792397
1727705741.8353703,-3.4220384441970583e-07,4.672866194181477e-07,0.802373064052062,-0.5968228096205522,6.611973082745366e-07,8.030878481019804e-08,0.06273995628673273,0.0019281657024518806,1.7318715509186613,9.800024001933796
1727705741.8510752,-3.505864321911417e-07,4.771170564918046e-07,0.8016621961313416,-0.5977773191528128,6.350754542835519e-07,7.57013010160727e-08,0.057635839271040996,-0.0025933279196037927,1.7315567744198572,9.799997726277597
1727705741.8792305,-3.566554771303964e-07,4.842328152921427e-07,0.8011661271869439,-0.5984420077567348,6.161291421973818e-07,7.243709354603952e-08,0.05415260886930589,-0.005506506489406555,1.7313104455168413,9.799997700929243
1727705742.1638997,-3.5792104751827257e-07,4.848293789891765e-07,0.8005451432139494,-0.5992724536270576,-5.165608621505387e-07,9.974725325289052e-08,0.07922749896243805,-0.13803311196481383,-1.3876912004886017,9.79998694687679
1727705742.1705394,-3.5790160414286205e-07,4.825748695858567e-07,0.7992848829065208,-0.6009523075558895,-1.4044432775126416e-08,1.4182603171320804e-07,0.11099856044448277,-0.06335353388082676,-0.008809038317984503,9.800000156691176
1727705742.1981757,-3.586975733658947e-07,4.817420893846094e-07,0.7982800383285127,-0.6022864604205107,-1.1770941567926043e-08,1.4269737374946674e-07,0.11139060522917009,-0.04973146728630075,-0.0016629717285491386,9.799999920808915
1727705742.228248,-3.594944028276156e-07,4.809151467699063e-07,0.7972725203081816,-0.6036195228462046,-1.1419504200543186e-08,1.4241713861563341e-07,0.11139905798673914,-0.04943804913959386,-0.001604249146208207,9.799999922416646
1727705742.2719269,-3.6004717238830903e-07,4.790342401206337e-07,0.7958285673077227,-0.6055219991516232,-9.4230854940732e-09,1.5256973617397352e-07,0.12021733004971484,-0.05456164985009398,-0.0034364600728673954,9.799999984440586
1727705742.303018,-3.6138339672501394e-07,4.788115028952339e-07,0.7947563610255606,-0.6069286009153375,9.139957898893551e-09,1.4831204308763756e-07,0.11630766833045457,-0.039644964339634825,0.05323705534596342,9.79999752160052
1727705742.5538876,-3.622411130968328e-07,4.78015487605631e-07,0.7936922920802125,-0.6083194436248925,-3.800051318365089e-09,1.4827754371794458e-07,0.11817011161694466,-0.08167947965087012,0.011302809727522374,9.80000002684562
1727705742.5577662,-3.6309066291139313e-07,4.771755068244798e-07,0.7926060808908592,-0.6097340408198259,-9.759378056517042e-09,1.5050238810972805e-07,0.11898844392816335,-0.05332824806842783,-0.001880313115513592,9.79999993058779
1727705742.590437,-3.6423645057303687e-07,4.760920625173719e-07,0.7911699303668537,-0.6115963875653196,-9.361137415997327e-09,1.4768096493427704e-07,0.1168935805100773,-0.05016386691497988,-0.0011405442599376242,9.799999916755501
1727705742.619993,-3.6506861709072187e-07,4.7527511977494725e-07,0.7900740469626241,-0.6130114194007663,-7.505518468877945e-09,1.5129937251390694e-07,0.12424321018706663,-0.15523995558088613,-0.01149231813240884,9.799999972709731
1727705742.7002883,-3.659636738831585e-07,4.7440397050440305e-07,0.7889072649741008,-0.6145122677951392,-8.833627299286959e-09,1.5951251007640102e-07,0.12703267231481524,-0.05843336338933474,-0.002404968885512233,9.799999940157134
1727705742.738865,-3.6769265764620274e-07,4.7377512649910146e-07,0.7871690166918194,-0.6167373340086316,3.297139954962606e-09,1.906423066881734e-07,0.15493719123887809,-0.13490919184497505,0.02296539679029083,9.799998364966708
1727705742.9760911,-3.6876812123174647e-07,4.72678850252788e-07,0.7857104580982989,-0.6185944358257693,-2.149793579817086e-08,1.973616395513315e-07,0.15932530391783709,-0.10727686407986373,-0.04235091341889117,9.799999743391885
1727705742.9786663,-3.6948612960534125e-07,4.710834855503612e-07,0.7842350879378458,-0.6204637997875142,-2.40917149034198e-08,1.9720824539122246e-07,0.15787251778625525,-0.06358601396835517,-0.04783126476365367,9.80000199448443
1727705743.0105493,-3.7098012122459737e-07,4.6968356839321364e-07,0.7822741668504016,-0.6229342885715571,-7.222215955371611e-09,1.962421757002411e-07,0.15769000145872317,-0.06973737629149049,-0.00325986085312716,9.799999949791356
1727705743.289363,-3.719991932915383e-07,4.685012078225371e-07,0.7809008408909085,-0.6246550061398003,-4.2423992832386914e-08,1.7811960261794626e-07,0.12493510911338349,0.3884427789211241,-0.037063613555837815,9.79999933654862
1727705743.3006454,-3.721775355022892e-07,4.6707602141649276e-07,0.7800284390252571,-0.6257440645435354,3.7234911175132476e-08,1.1176832340173168e-07,0.08907803274558888,-0.018542177156365004,0.11933096775570937,9.800001519839542
1727705743.3324711,-3.728163763562015e-07,4.6649781285764786e-07,0.7791963580157544,-0.6267798941052812,-5.378151191373878e-09,1.1001809050895629e-07,0.08851659891092915,-0.03833339395601836,-0.0006088942453636806,9.799999935603157
1727705743.3715842,-3.734615581035094e-07,4.6548031746973376e-07,0.7780887139112022,-0.6281544024232061,-6.067950093108315e-08,1.0932689714197152e-07,0.08753499812040998,-0.02545015055606215,-0.1526764511446036,9.799999042817074
1727705743.4015925,-3.7404269438459924e-07,4.648608262299515e-07,0.7772663371754536,-0.6291717103410628,-4.664591762563321e-09,1.0796111653394643e-07,0.08717023007033055,-0.037745307217437137,-0.001359675825307627,9.799999973151397
1727705743.4337835,-3.745653241580345e-07,4.641868442884168e-07,0.7764621635544682,-0.6301638743755137,-7.302799440540091e-09,1.0411619984737328e-07,0.08376135298931989,-0.026460583420788338,-0.008124180874122776,9.80000034229563
1727705743.6773882,-3.7336294458953455e-07,4.6100876742503525e-07,0.7754236589009174,-0.6314413268201264,-6.316313748685012e-07,1.0118084407373067e-07,0.0787293419685047,0.02740943487892483,-1.731538824759832,9.799989642047565
1727705743.6900275,-3.728104460383623e-07,4.593542967265862e-07,0.7749028283662138,-0.6320803798487121,-4.681280655022369e-10,6.486636516388418e-08,0.052114518046415065,-0.0006246100303785965,-0.013481358071174485,9.8000006747297
1727705743.715405,-3.7326487769411074e-07,4.591336304442576e-07,0.7744182105824812,-0.6326740354383746,1.3819826688755803e-08,6.224946039788148e-08,0.050006795483046054,0.0008276960599067795,0.026518400528221058,9.800000098820725
1727705743.7553284,-3.7381640677215945e-07,4.588189706178931e-07,0.7737919771799814,-0.6334397967064787,4.915526044864363e-09,6.038857036189057e-08,0.04940684560656242,-0.020114639682911516,-0.0002706164387957552,9.799999958258445
1727705743.8258758,-3.7407385806473786e-07,4.5836757594360454e-07,0.7732906730596713,-0.6340516816148115,4.3981999284532064e-09,6.469329130921436e-08,0.053131441811078955,-0.0245860607832771,-0.003261162802076058,9.80000007352477
1727705743.857248,-3.743676880452812e-07,4.5793180562847474e-07,0.7728086178606525,-0.634639141686012,-4.0212683579199924e-08,6.090684264954692e-08,0.04558716788798376,0.08480185397202328,-0.11138408195665246,9.799999208320921
1727705744.0736415,-3.747162806033359e-07,4.5770328327211317e-07,0.7723989276965277,-0.6351376988440414,5.337566255914044e-09,5.213452261672515e-08,0.0427136875227508,-0.015150944994516018,-0.00024050618667792274,9.799999976673373
1727705744.0902562,-3.729219615475112e-07,4.543611648828867e-07,0.7715269924770298,-0.6361965890186801,6.73426967651026e-09,9.253350161555248e-08,0.07755775322951865,-0.05290382067244776,-0.02179274212917761,9.800000769219258
1727705744.1108992,-3.737554385879878e-07,4.542379299966906e-07,0.7707560167616158,-0.6371304125729848,6.241866065651882e-08,9.839958109899021e-08,0.0860040294417511,-0.13962610242483176,0.12139045337704595,9.800000789876702
1727705744.3952837,-3.7452283037410247e-07,4.5388896650176983e-07,0.7699081425303895,-0.6381547242362615,1.212873629072966e-08,1.0733474078328061e-07,0.0889616139817777,-0.03662136377297374,-0.0009797767935428247,9.799999949354055
1727705744.4076152,-3.7387828598258864e-07,4.5141078823035245e-07,0.7687916059377242,-0.6394993875207007,-9.215861754272181e-08,1.0503746048012728e-07,0.08740613622483946,-0.03605459379397448,-0.3000205689390306,9.79999833305327
1727705744.435752,-3.7459779652585873e-07,4.510155421980172e-07,0.7679518131674694,-0.6405076210728896,1.6034659841580297e-08,1.0499990127868564e-07,0.08748655779399848,-0.03251477709804229,-0.0018367264374513491,9.800000004366607
1727705744.4658878,-3.7536864458453835e-07,4.506823978389176e-07,0.7671105998062439,-0.641514869402542,1.5853381769134254e-08,1.0497449390056147e-07,0.08748831829041265,-0.03245113833389359,-0.0009940078759702103,9.799999967793108
1727705744.505075,-3.7655063188307556e-07,4.5040703026491537e-07,0.7659683224835555,-0.6428783158198627,1.5605489721500342e-08,1.075059985929867e-07,0.08964699528305199,-0.03503963262655972,0.0010370545294649727,9.799999865305693
1727705744.5788572,-3.7597641411775926e-07,4.4843513127310505e-07,0.7650928213945474,-0.6439200064062217,-3.419630914106682e-08,1.0908788599157185e-07,0.09142518674737839,-0.03855965969861868,-0.14659301357495597,9.80000648980649
1727705744.8181345,-3.7676396718415125e-07,4.4807165444590004e-07,0.764207788006567,-0.6449701208193812,1.7958204689737202e-08,1.0938322222389628e-07,0.09157058205550349,-0.03310137458534779,-0.0015126908316245697,9.799999988612766
1727705744.821381,-3.7578127785032157e-07,4.4558923670759967e-07,0.7632805480337782,-0.6460671830335568,3.258795545953395e-09,1.1623616324493593e-07,0.09869821814768175,-0.055650348874301855,-0.059192369960605985,9.800002447663621
1727705744.8540897,-3.7697796075101085e-07,4.451463119193201e-07,0.7619966339774972,-0.6475809832033549,2.2392442101420537e-08,1.1798897465272078e-07,0.09930204130228724,-0.0343119783694941,-0.001331480666242087,9.799999972562187
1727705744.8820415,-3.7787645031217154e-07,4.448120900531995e-07,0.761031166204493,-0.6487153181982747,2.1735118681907196e-08,1.1800099672411069e-07,0.09930560046584179,-0.03418700626620926,-0.0012912190463982797,9.799999972410976
1727705744.966771,-3.7855755457465795e-07,4.44264932860118e-07,0.7601134069263715,-0.6497904343789954,2.061158960446127e-08,1.1136256806542657e-07,0.09363398937154514,-0.027677331393637726,-0.0033162639326941123,9.800000097617986
1727705745.010203,-3.7914629327523055e-07,4.4321832338514855e-07,0.7588881223132871,-0.651221020707619,-1.454703276059995e-07,1.1251514685865334e-07,0.09614231892428962,-0.06967380958206237,-0.4671039130409381,9.799997236623536
1727705745.2166586,-3.799357913092224e-07,4.4279773281374143e-07,0.7579394892988349,-0.652324865815401,2.1614785052454563e-08,1.15087982592355e-07,0.09713700318705537,-0.03354072133685866,-0.0026404031384733746,9.800000033176639
1727705745.2181246,-3.788326647576063e-07,4.402301530633398e-07,0.7570564948055798,-0.6533494192791112,1.6893150547549764e-08,1.0547447646725235e-07,0.08934324190002924,-0.02265717005253056,-0.029034357588673777,9.800001271255224
1727705745.247282,-3.7998068060117276e-07,4.3993125010625846e-07,0.7558898563864832,-0.654698804803922,2.6333220922767833e-08,1.0498902546121423e-07,0.08917393630351761,-0.028543132006085447,-0.001046692936457018,9.799999975569925
1727705745.5366144,-3.80835998687263e-07,4.3970059342569915e-07,0.7550134580257375,-0.655709293970796,2.5555486425193376e-08,1.0501654507310733e-07,0.08917294013478054,-0.028578150466167185,-0.0010405651806325558,9.799999975864273
1727705745.538747,-3.793137473027824e-07,4.3670634538084616e-07,0.7540966664923879,-0.6567634411146327,1.5997532508872065e-08,1.1023176438334437e-07,0.0946668768086872,-0.03975956499503661,-0.04714559959600738,9.800001976826902
1727705745.5590572,-3.7995031500249667e-07,4.361484025482095e-07,0.7531471708115646,-0.6578520647517961,2.0532907357026733e-08,1.1344803899577387e-07,0.09726229243817079,-0.036057167316111874,-0.034259935836894684,9.800001419282511
1727705745.6006753,-3.812239991265381e-07,4.358543648480598e-07,0.7518636915403566,-0.6593185795523832,3.095603766360085e-08,1.1407769503075299e-07,0.09745994583662344,-0.02899901806713864,-0.0012716596473489458,9.79999997755725
1727705745.6295948,-3.8148667469523614e-07,4.3478517022275245e-07,0.7508283087965714,-0.6604974267242424,2.846626876508898e-08,1.230267786129696e-07,0.10544991663078454,-0.036956973621328215,-0.01286746290739264,9.800000452736281
1727705745.668298,-3.8208342017961467e-07,4.3404585454293535e-07,0.7497806378438843,-0.6616864779592246,-9.484440973159224e-08,1.2378584678835081e-07,0.10576249407795202,-0.03346577917255391,-0.3516009665046091,9.799997896515084
1727705745.9359534,-3.833734487016387e-07,4.336182835893954e-07,0.7483786088520751,-0.6632717827650274,3.1497107895588256e-08,1.2372502199644612e-07,0.10582228373339116,-0.030356829741863413,-0.0016236753317965835,9.799999985088562
1727705745.9383996,-3.77532518893408e-07,4.2564545762189385e-07,0.7473717526750164,-0.664406098183295,-6.493517369801552e-07,1.1608766528751112e-07,0.09880068349329194,0.0036595691515094644,-1.9198997512043057,9.800002297776924
1727705745.9566388,-3.718126446334169e-07,4.179552830401741e-07,0.7464308919606741,-0.6654629392584379,-6.300155572983597e-07,1.0600988757059403e-07,0.09213543609133575,0.009254009672614123,-1.9196593916013318,9.800002257518093
1727705746.0005302,-3.6437568859595413e-07,4.0812129597994837e-07,0.7452735915140875,-0.6667587823129095,-6.051191267083293e-07,9.376349476249552e-08,0.08378622368742968,0.015496582218845872,-1.9193806040635366,9.800002205768282
1727705746.064091,-3.5894050696794806e-07,4.010460492461969e-07,0.7444744716737809,-0.6676509275255708,-5.870898353245548e-07,8.540781740535039e-08,0.07791461800264665,0.0193477268171905,-1.919198290259073,9.800002168332353
1727705746.0957265,-3.566891039480646e-07,3.976895209290104e-07,0.743945468308413,-0.6682403311557084,-1.0699133289884987e-07,4.711858384022395e-08,0.031535297048469337,0.3079096145333492,-0.5840844885180079,9.800001952488646
1727705746.1301968,-3.571379064401909e-07,3.980216056387876e-07,0.7439034176976816,-0.668287142729398,1.1493333812174698e-07,3.204512867688876e-10,0.0007153690384707927,0.026068700015133155,-0.01023380925301505,9.800000577762484
1727705746.3239594,-3.586768654980543e-07,3.997793146303148e-07,0.7439025050222247,-0.6682881586721185,1.1524479059656667e-07,-1.6091528797099747e-09,4.2428537610959264e-06,0.00015465881595260099,2.7320829871806337e-05,9.799999964039257
1727705746.3320358,-3.5979145714079584e-07,4.0105565942545787e-07,0.7439024996928403,-0.6682881646045016,1.1182245858784588e-07,-1.5729260946674733e-09,9.06863304746867e-08,3.3132234279093037e-06,1.1049449000208389e-05,9.799999964936385
1727705746.387923,-3.6087293012523977e-07,4.0229410752599815e-07,0.7439024995789308,-0.6682881647312982,1.0850178861503694e-07,-1.5265348620944427e-09,1.938186278621427e-09,7.87648498887599e-08,1.0630069668106626e-05,9.799999965994742
1727705746.6461437,-3.621340166564281e-07,4.0401286248085116e-07,0.7444510889367146,-0.6676769998889024,1.0453285854085819e-07,-7.276460274690452e-08,-0.08147116874186082,0.37123676312379533,0.05047586047441332,9.79999991095583
1727705746.661328,-3.625169621206944e-07,4.0573240776677336e-07,0.7457756198077519,-0.666197211717422,1.0140967762724453e-07,-1.5707159340122074e-07,-0.15725403502366928,0.34567953701275234,0.04290038345047934,9.799999920147751
1727705746.690346,-3.624956947153839e-07,4.077861080392698e-07,0.7474808215961541,-0.6642833893344321,9.91514087636518e-08,-1.8996855964856843e-07,-0.17250557181603826,0.012734254428699007,-0.002272556584604796,9.799999961075798
1727705746.6953938,-3.6383252161321737e-07,4.641029428611005e-07,0.7870087432311205,-0.6169418433510766,6.39310884851397e-07,-4.052400172430562e-07,-0.33670643080807616,-0.03496961999953359,1.6920485331683657,9.79999786869476
1727705746.7313387,-3.623285465249279e-07,4.1051532000479814e-07,0.7497722085146072,-0.6616960294114119,9.516618987437062e-08,-1.9148347188729545e-07,-0.17283678656900153,0.0006653364932360398,-0.00416160866604254,9.799999974853579
1727705746.7876303,-3.6217157064392286e-07,4.1252101162511577e-07,0.7515597332851384,-0.6596650417477573,9.290398441216899e-08,-2.018806360827318e-07,-0.19543906388202015,0.3172020963945971,0.03948881959916324,9.799999967588995
1727705746.8180072,-3.618042370272047e-07,4.1465442734885226e-07,0.7535652538736305,-0.6573731118277258,8.999798395786006e-08,-2.2639914067428414e-07,-0.203935657712436,0.007590844954908112,-0.004856700590323585,9.799999975596604
1727705746.941833,-3.6287553740120207e-07,4.679225344881127e-07,0.790269471892534,-0.6127594648753658,-1.1625263403534934e-07,-4.3784261618388304e-07,-0.3747592249266327,0.34304610219793924,-0.3234948934538259,9.799998704057808
1727705746.9650896,-3.574886131506157e-07,4.667235257971345e-07,0.7939349234719899,-0.6080027444766841,-2.694459383262009e-07,-4.819233936751141e-07,-0.4100200698327632,0.23270564784498235,-0.7896645309176027,9.800004044724254
1727705747.0079083,-3.514137826527021e-07,4.6733466791904105e-07,0.7993816947142509,-0.6008235233039982,-1.2548254502094676e-07,-5.524247301876956e-07,-0.47471914418285766,0.27845113589003323,-0.4188894633785084,9.800001082902737
1727705747.0327046,-3.613356400098799e-07,4.1679921194361617e-07,0.7557976444771978,-0.654805253951444,8.616726933055931e-08,-2.627951001155357e-07,-0.24942368333440246,0.3149176043595939,0.02992019013265705,9.799999938647481
1727705747.038256,-3.460069447024666e-07,4.673709705418119e-07,0.8038480435684386,-0.5948347021239223,-2.3228853803972684e-07,-5.908194311811287e-07,-0.5069535429492389,0.19827040096560916,-0.7483992074955438,9.800001858953134
1727705747.0547593,-3.60061382504448e-07,4.2011314067780273e-07,0.7597680049149691,-0.6501942622841432,8.28585458091627e-08,-3.614081756242707e-07,-0.3371308615696022,0.30917245561137086,0.017079591418513534,9.799999954713469
1727705747.0699294,-3.41894092598121e-07,4.6947640667725364e-07,0.8084350936760365,-0.5885853373238927,2.429703135996003e-08,-6.075858433152268e-07,-0.5185544751248712,0.07310520230814771,-0.06786157228590328,9.800000785686008
1727705747.0820642,-3.5871816523730685e-07,4.2303772912157064e-07,0.7632032673918462,-0.646158473319125,8.512489046343984e-08,-3.967684341199023e-07,-0.35619955442199663,0.029025601725005838,-0.012000821457137423,9.799999939216043
1727705747.113975,-3.3772927767762923e-07,4.743625480259484e-07,0.8146179353966315,-0.5799979476944641,3.546409199174599e-08,-6.238861142733571e-07,-0.5307598712785311,0.06710387296843846,-0.032855350776747796,9.799999908536762
1727705747.1637812,-3.571755985712787e-07,4.2595776672156977e-07,0.766825810968351,-0.6418552606564986,8.633495686987214e-08,-4.2884124333899844e-07,-0.38918921017860564,0.14744238826232453,0.009031064775049114,9.80000012021744
1727705747.2074358,-3.547968481082687e-07,4.3003773689202755e-07,0.7718698476391805,-0.6357805740231116,7.969918860285582e-08,-4.4395247354117705e-07,-0.3956813254883431,0.006507897346203984,-0.021409440698004992,9.799999998623944
1727705747.247587,-3.529388503474888e-07,4.3306962038917474e-07,0.7756309115494863,-0.6311867307291885,7.730444259808404e-08,-4.4510978440998184e-07,-0.3958285499506531,0.003310259864835262,-0.02189848054472354,9.800000000867238
1727705747.3457332,-3.3043585490153304e-07,4.7217198618217326e-07,0.8191540059385465,-0.5735736348146588,-5.96776574937466e-07,-6.086570059576209e-07,-0.518072197304002,-0.023210690303319806,-1.810301905972118,9.800002863662357
1727705747.351374,-3.247519523740772e-07,4.7204602789786994e-07,0.8237378342946339,-0.5669708813962653,-2.032947090490279e-07,-6.235935283807782e-07,-0.545620117775705,0.1765381734634092,-0.7241250276707147,9.800001103112455
1727705747.386395,-3.1848275128015155e-07,4.7439456401635487e-07,0.830183418914806,-0.5574903505520049,3.119747906185548e-08,-6.689234370194387e-07,-0.5848082196223462,0.08148450057268446,-0.11184306900660125,9.800001687697385
1727705747.4433362,-3.551219772033768e-07,4.4112058774801695e-07,0.779294383520142,-0.6266580118482816,7.215424471971671e-07,-4.376763518237936e-07,-0.3808447943940781,-0.10017781098800971,1.7764281679484872,9.79999783553845
1727705747.4658835,-3.603016646100056e-07,4.5455195353424903e-07,0.7838287050882288,-0.6209771018961762,6.590033010869745e-07,-4.180155653284737e-07,-0.35419434472651407,-0.05252570852960814,1.689061900596823,9.799997900687826
1727705747.4703465,-3.143860324689338e-07,4.773919295413201e-07,0.8350476782685828,-0.5501775849831784,1.4249827036176267e-08,-6.722216538623924e-07,-0.5840972882691632,-0.004016269048139105,-0.1689541894111713,9.800000854297377
1727705747.4983964,-3.1053143970147785e-07,4.807143558276418e-07,0.8398150836606606,-0.542872568155465,5.3899015932707034e-08,-6.680485994836164e-07,-0.5810825752606935,0.017682321059642483,-0.0519673812085083,9.800000136905377
1727705747.5244012,-3.070940945474471e-07,4.846947761968914e-07,0.844521929472702,-0.5355209712414402,9.528128106645346e-08,-6.71063215541921e-07,-0.582066142494289,0.012132993552964724,0.06883954364985026,9.799998839377961
1727705747.760475,-3.020431375986967e-07,4.891494371575922e-07,0.850381821582516,-0.5261660930938739,3.738987630346487e-08,-6.076644808984403e-07,-0.505511941757071,-0.494897555867066,-0.13679829569329446,9.800000147305076
1727705747.764062,-2.988287598389559e-07,4.917736928423264e-07,0.8537710583920486,-0.5206486145682035,3.62339381599682e-08,-4.798156578494172e-07,-0.3947699827144421,-0.5008631724120014,-0.1124004574255805,9.8000001198524
1727705747.8020926,-2.964187544406554e-07,4.938654375600027e-07,0.8562674234039148,-0.5165327672247798,3.525005423699951e-08,-3.517265087101972e-07,-0.2839841971545815,-0.5060442516800534,-0.0937459194194505,9.800000098932195
1727705748.076715,-2.94471510532119e-07,4.958481905190877e-07,0.8582516405493236,-0.5132291120874399,3.420664853556367e-08,-1.8288101262064857e-07,-0.13920646422061736,-0.48556787450779093,-0.07431199163998531,9.800000078360702
1727705748.0795848,-2.925660865429366e-07,4.945710405635146e-07,0.8589123579392633,-0.5121226038546673,-1.750312010679726e-07,-8.579215579190778e-08,-0.062212626019852106,-0.32457932301921555,-0.6336498631127658,9.800000495601358
1727705748.107907,-2.912552375166412e-07,4.930476037833015e-07,0.8590695413317027,-0.5118588898864704,-5.5215962211278814e-08,-1.2570706728887352e-08,-0.004849310014450063,-0.1717034248635272,-0.2939485475665444,9.800002569902867
1727705748.1526756,-2.9165578943363336e-07,4.93703353516426e-07,0.8590747263204592,-0.5118501876497646,4.1829896026903e-08,1.6298393122668805e-09,-3.1477140676026014e-05,-0.0011473567786741562,-0.0002610210555315532,9.799999993090239
1727705748.1925116,-2.9199247677211166e-07,4.942192964962652e-07,0.859074756603716,-0.5118501368232078,4.0628043600894075e-08,1.6670561193084542e-09,-6.728119948430403e-07,-2.4483273104658635e-05,7.420438418603697e-06,9.799999988008809
1727705748.2238803,-2.921428723056067e-07,4.94828852783144e-07,0.859494835454159,-0.5111444295180158,3.9432313460334345e-08,-7.495855734478782e-08,-0.08147182366343297,0.37123650236471173,0.050297769446093925,9.79999992766983
1727705748.4364574,-2.916826242841071e-07,4.957767167952194e-07,0.8605082724398295,-0.5094364661685391,3.799419601338545e-08,-1.6396376748604482e-07,-0.15725467090858036,0.3456784209167834,0.042734748034576636,9.79999993692887
1727705748.4523382,-2.9144196744274736e-07,4.995612558313515e-07,0.8625617875211278,-0.5059517395048883,2.0449015215861973e-07,-2.4900230245098946e-07,-0.21752469537211827,0.051417566896690865,0.4711872071160252,9.799999842299862
1727705748.4842138,-2.9012120653445935e-07,5.010564627658551e-07,0.8642170317034013,-0.5031191927500152,3.2120155704798214e-08,-2.533951928281956e-07,-0.2188569099277567,0.005057373912179461,-0.005219362713144807,9.799999938082891
1727705748.5722117,-2.8871127433801534e-07,5.024173229394735e-07,0.8658642303520097,-0.5002790567239308,3.068166195992782e-08,-2.536864104062334e-07,-0.21888551078256224,0.004022774032437663,-0.006682428067293282,9.799999998033014
1727705748.6156356,-2.868977000512766e-07,5.041556216226208e-07,0.8679229273167051,-0.49669889494306807,2.9272933729726387e-08,-2.381986239884083e-07,-0.2052666429632911,0.0007385559462655385,-0.006296936121253232,9.799999998820192
1727705748.656322,-2.8617210562687864e-07,5.066449016117145e-07,0.8695554388958973,-0.49383533559904846,3.0651794099657075e-08,-2.5728410678855247e-07,-0.22147278696209932,0.01864115886392623,0.008174041003623577,9.799999399728554
1727705748.8583949,-2.862867594417467e-07,5.107996103402107e-07,0.8711767004798111,-0.49096960857141314,6.819760544721425e-07,-2.5567723522798347e-07,-0.21497996876154235,-0.09224235450718805,1.8015672904270292,9.80001083133425
1727705748.8675947,-2.9030623315868866e-07,5.230283224983985e-07,0.8731582776670376,-0.4874367878414336,6.218007588649911e-07,-2.3722960924724963e-07,-0.19533874887093003,-0.04876756152656333,1.7124088516872482,9.799997824071367
1727705748.9037952,-2.9062989918151747e-07,5.273762311643165e-07,0.8747096977718729,-0.4846472373009839,1.4757023605766238e-07,-2.656306505865704e-07,-0.22785287703127266,0.24664419116528621,0.46965343134943494,9.7999984556733
1727705749.1900332,-2.906170763662923e-07,5.319386998477348e-07,0.8765045310218376,-0.48139360932382647,6.055132236014316e-07,-3.046448557012293e-07,-0.24696420971382027,-0.0453417253169874,1.7050058459770252,9.80000875477284
1727705749.193235,-2.927355954166826e-07,5.405115058562069e-07,0.8782112442895534,-0.4782729455060325,5.137002519549676e-07,-2.912537410545821e-07,-0.23391220548659647,0.014024746951991171,1.5086986282302648,9.799996573311677
1727705749.2287326,-2.9130464703900787e-07,5.445546908082565e-07,0.8807532677970347,-0.4735754229945464,1.0166529124686294e-07,-3.51079726702227e-07,-0.28908584036943835,0.27512832468952897,0.4216378884737276,9.799999224574346
1727705749.257939,-2.895714171365521e-07,5.474391223666991e-07,0.8830060971343692,-0.46936151570313617,1.507353726337499e-07,-4.079421454676252e-07,-0.33189199717648443,0.24950629949030886,0.5545133597009936,9.800000394768091
1727705749.313563,-2.868409502665594e-07,5.492835651383412e-07,0.8854629818773748,-0.46470991782448945,-3.7546998397539884e-08,-4.4373622513371404e-07,-0.35416393417190545,0.12032602620751497,0.016420587161674532,9.799999342067121
1727705749.3563812,-2.776989144762387e-07,5.413221177354102e-07,0.8886693133519878,-0.45854863592222816,-7.303789175605189e-07,-4.2304886693371526e-07,-0.3394557666510404,0.004785340444715593,-1.9597637790331248,9.800002529431968
1727705749.5911634,-2.700550362828928e-07,5.331830446761353e-07,0.8909200240097002,-0.4541602259315515,-7.086672442822092e-07,-3.9468561724926166e-07,-0.3234184110337643,-0.02005118217920081,-1.957386194975671,9.80000248029238
1727705749.5948126,-2.6287007896450757e-07,5.253450655795995e-07,0.8930351588352428,-0.4499868943466772,-6.532830375109226e-07,-3.660487223237675e-07,-0.3052612431175049,-0.0672710485428487,-1.8631215311516762,9.800002999837496
1727705749.636026,-2.5747818385056065e-07,5.227857136482169e-07,0.8959357010291296,-0.44418376784963953,-1.2794417988351332e-07,-3.938121938727728e-07,-0.3453920511173304,0.2237931014657225,-0.41022750446612677,9.800000616805631
1727705749.7052624,-2.538533388365229e-07,5.225249086825374e-07,0.8984190015650458,-0.4391392690554202,-1.2112155230044304e-07,-4.43927880911721e-07,-0.38959042737068494,0.22396709546196744,-0.4087097560200008,9.800000504612463
1727705749.7474272,-2.4992339433765675e-07,5.224710743460604e-07,0.9011620844460717,-0.43348229209100986,-1.1660496102603317e-07,-4.939249315664158e-07,-0.4339104770545851,0.22156194296049272,-0.4143544093461289,9.8000005068645
1727705749.7715003,-2.454887683889164e-07,5.221754851129575e-07,0.904135840570801,-0.42724510739737925,-1.3388509043003293e-07,-5.383656977191168e-07,-0.47347168964648223,0.2014053458885386,-0.48430130755494294,9.800001622457119
1727705749.9739952,-2.4056376699509693e-07,5.247565131173019e-07,0.9082838966791464,-0.41835435103870044,3.2780238167943336e-08,-5.728853287194632e-07,-0.5084602485306223,0.3122128022930505,-0.01687957752969458,9.799999973447143
1727705749.9755363,-2.3660101576398816e-07,5.27099138215836e-07,0.9117185670263974,-0.41081535333894026,3.1739956203827074e-08,-6.497598772522449e-07,-0.5742239232752887,0.3131833902664812,-0.03358186615396758,9.800000028849045
1727705750.0003116,-2.322736236358396e-07,5.299386238002567e-07,0.9153673940302949,-0.40261958962009303,4.437612895329511e-08,-6.960339175380549e-07,-0.6023264414216639,0.04619909722460197,-0.04077563465388265,9.79999993205052
1727705750.275872,-2.2616158505300617e-07,5.334360360920999e-07,0.9202056794648352,-0.3914351893740841,2.84053015517104e-08,-7.118719269517992e-07,-0.625938402702692,0.31487380863611847,-0.04815550085746013,9.799999820317288
1727705750.2807066,-2.2113726818787728e-07,5.360026611575302e-07,0.9240917730149358,-0.38217063603288004,2.755254195449792e-08,-7.889964355793009e-07,-0.6916903487095748,0.3157817778819313,-0.06854500315271424,9.800000070633345
1727705750.3090215,-2.1576479882375173e-07,5.392091094732519e-07,0.9281768214250483,-0.3721394740805606,5.504831459958874e-08,-8.452231606346199e-07,-0.7290355985067849,0.07425166293903226,-0.035945076077915444,9.799999374783553
1727705750.3504949,-2.0815226490556361e-07,5.431539345049284e-07,0.9335218998197989,-0.3585203795553257,4.279516739510178e-08,-8.529088723672853e-07,-0.7319237307299981,0.012062162069875893,-0.07469155348070074,9.80000007452552
1727705750.412708,-2.023755405869183e-07,5.460128112315561e-07,0.9374019944544203,-0.34824919352747385,4.144423646473325e-08,-8.539470018393464e-07,-0.7319892599543034,0.01064135889674617,-0.07499758863860179,9.80000007753964
1727705750.4438963,-1.9653053101500063e-07,5.487011309879301e-07,0.9412061793061837,-0.3378326923722987,2.1390965382357358e-08,-8.659742630062989e-07,-0.7539114872770073,0.31845749315588795,-0.08971580665657794,9.799999749792256
1727705750.6781793,-1.9039407182447857e-07,5.516248214178802e-07,0.9451068297121124,-0.3267615039002903,4.574742206584166e-08,-9.19163533656639e-07,-0.7882419957681239,0.06453017287541461,-0.06892264960241505,9.799999828376443
1727705750.6825585,-1.8233768365693963e-07,5.547497339370403e-07,0.9495619035575653,-0.31357964109902253,1.831451964036995e-08,-7.727483291846666e-07,-0.6402119255773371,-0.5110026545811385,-0.17471583219080247,9.800000201936646
1727705750.709749,-1.7735538600123594e-07,5.566632830728674e-07,0.9521908596504363,-0.30550379178959786,1.7748403300116837e-08,-6.426761556007655e-07,-0.529196121898185,-0.514107036150015,-0.14306227864195029,9.800000165232865
1727705750.7414386,-1.7329170421320378e-07,5.582362229968126e-07,0.9542546011144653,-0.2989952445299611,1.7328814789867272e-08,-5.125601350133069e-07,-0.41819525236721034,-0.5162171915152822,-0.11720022356327123,9.800000135292805
1727705750.8405447,-1.6837224497706154e-07,5.601319108285164e-07,0.9570471185529625,-0.28993242810891207,1.7149104544238955e-08,-5.786178280493012e-07,-0.5070756005814603,0.3097627649202527,-0.016638759235763547,9.80000001278169
1727705750.871813,-1.6401917050854928e-07,5.617030065403572e-07,0.9594102252480985,-0.28201421894835405,1.654371127389401e-08,-6.561814705664833e-07,-0.5727936527634945,0.31040452053633133,-0.033292223373294995,9.800000032486686
1727705751.0846534,-1.590883648638003e-07,5.633892017231753e-07,0.9619774768045886,-0.2731287866928977,1.5992907927366382e-08,-7.337541438552196e-07,-0.6384914455073063,0.3109774049186468,-0.05200408916859069,9.800000054609212
1727705751.0891652,-1.5208051208275496e-07,5.671791647056181e-07,0.9655686380899935,-0.2601484290490531,4.240378157758233e-08,-8.01898903585333e-07,-0.6837024064227233,0.053318168344618826,-0.021823696310848947,9.799999190771373
1727705751.1024344,-1.4634539163365322e-07,5.691618255005674e-07,0.9681919376523588,-0.250208656654054,2.8217477416104145e-08,-8.068693235268717e-07,-0.6856355630947215,0.011947833820752202,-0.06489210463453601,9.800000057223892
1727705751.386092,-1.405685775440326e-07,5.710555938328771e-07,0.9707143244928178,-0.24023675868631317,2.714597741911343e-08,-8.076824431915367e-07,-0.6857519114475791,0.009430566292945922,-0.06580301519745596,9.800000070625687
1727705751.3889089,-1.3702912072432724e-07,5.82140007024946e-07,0.973082363617471,-0.23045761783086738,6.554835943266188e-07,-7.974989743613888e-07,-0.6633805065065259,-0.08120654462019235,1.705942109378862,9.79999782657751
1727705751.4103487,-1.3213870460362302e-07,5.963933431746529e-07,0.9759754553358295,-0.2178804961019855,6.294741602785296e-07,-7.823090670316302e-07,-0.6345645797472927,-0.03277065089882529,1.7155148874924981,9.799997776445489
1727705751.4413621,-1.2722435105619614e-07,6.01577410294116e-07,0.9779962469954887,-0.2086224840767662,3.0214537916200014e-08,-7.85378485365265e-07,-0.633223075237617,0.10962294320246926,0.10994178332359365,9.799996628436599
1727705751.4735088,-1.216397535857088e-07,6.040750087321156e-07,0.9799521438623823,-0.1992330186970555,5.1332710483472305e-08,-7.995972779023937e-07,-0.643866017418581,0.13388525426810494,0.17489870418500206,9.799996672180376
1727705751.5280018,-1.1391601588116118e-07,6.068311596084258e-07,0.9824507256695361,-0.18652230866848324,4.682547552828042e-08,-8.134479476212746e-07,-0.653485555881512,0.1418026636700476,0.16690371337623985,9.799996763026892
1727705751.808854,-1.0782727615867563e-07,6.078139459784776e-07,0.9842275929794196,-0.17690688290045886,-1.764958746508124e-08,-8.12134999792774e-07,-0.6506324551093021,0.10074247947518734,-0.015891999870686756,9.799999936941623
1727705751.809906,-1.0326518244286481e-07,6.172970614954674e-07,0.9858802315687343,-0.16745199013922296,5.636747578853608e-07,-8.038205323844128e-07,-0.634573740833297,0.055484975908534746,1.6241880436502891,9.799997852221042
1727705751.82547,-9.686205526250575e-08,6.28330941264483e-07,0.9878769471722408,-0.15523896819178545,3.101954504387638e-07,-7.865743046927203e-07,-0.602470442357485,-0.06204636711035608,0.9704686721755668,9.799994082450947
1727705751.8582933,-9.17432586734388e-08,6.329316920691886e-07,0.9891586535846861,-0.1468508019662237,1.883140000386455e-07,-7.217097246386858e-07,-0.5454946671751301,-0.12602931628020148,0.6630843199525862,9.799997334885571
1727705751.940205,-8.703317517218452e-08,6.368162897928102e-07,0.9902457862098796,-0.13933155742029202,1.444462706491126e-07,-6.469127580111624e-07,-0.48439892113308647,-0.1531820949144816,0.5722858743003839,9.799997954562148
1727705751.9712543,-8.245155985835327e-08,6.380627666164885e-07,0.991190702337372,-0.13244240861420847,2.1531384908955068e-07,-5.98875972561597e-07,-0.452249672450536,-0.038165199243570265,0.7954706630505401,9.800004688956214
1727705752.1777267,-7.695995754939364e-08,6.40761509192201e-07,0.992291365781419,-0.12392677432754273,-8.61506593566178e-08,-5.54294327992013e-07,-0.42187452567751693,0.12321443989303742,0.008433030936930722,9.79999913656339
1727705752.1792397,-7.3341836071899e-08,6.444078633395072e-07,0.9929895124847827,-0.1182024876845364,1.3275655197924925e-07,-4.916206339160704e-07,-0.36230293732299584,-0.17349903789831767,0.5966674838564686,9.799997832052005
1727705752.203767,-7.01405303309878e-08,6.463657895975786e-07,0.9935533799056551,-0.11336525604269843,2.111525822902504e-07,-4.178799001918978e-07,-0.31285964069639915,-0.010798263484633438,0.8538509000800552,9.800003233008301
1727705752.501731,-6.586583832077708e-08,6.450217954937793e-07,0.9942309693494278,-0.1072603355676105,-1.0836714532024622e-07,-4.022026092754443e-07,-0.3065519197687468,0.12716601789695467,-0.01236515168249423,9.800000014500748
1727705752.5041041,-6.345990801951511e-08,6.507156894967073e-07,0.9946842425348055,-0.10297212075378998,1.580938031602368e-07,-3.7105821964112415e-07,-0.2700717393726306,-0.1651365659729035,0.7122244898999491,9.799994132931099
1727705752.5157545,-6.10992107768788e-08,6.524157910092133e-07,0.9950482788798829,-0.09939276984646939,2.491778162071668e-07,-3.118270358703901e-07,-0.2333900379438576,0.0299749867278651,1.0042555249314327,9.800004996482256
1727705752.5544271,-5.782662757414951e-08,6.506281965284905e-07,0.995497659151181,-0.09478613096910143,-1.1916551026654898e-07,-3.0459347875020964e-07,-0.2312310175370229,0.10974691180949564,-0.006844866843857453,9.800000013336158
1727705752.5851362,-5.5491586029027566e-08,6.4999843753366e-07,0.9958134339223257,-0.09140899747508391,-1.1454452221694258e-07,-2.9672686518512635e-07,-0.22551804619449412,0.10417258047160244,0.001199268440272878,9.799999640678136
1727705752.6503592,-5.3112142602428485e-08,6.484912971112455e-07,0.9961168069080357,-0.08804150722764531,-1.1427379634184234e-07,-2.9550806337341997e-07,-0.22539559289276412,0.10844703161296067,-0.006812146534412559,9.800000028843574
1727705752.6860144,-5.114001337091368e-08,6.503079524493746e-07,0.9963840588785651,-0.08496356402747429,-9.46840851867688e-08,-2.6451616580934835e-07,-0.20003873443506048,0.0568380801971075,0.05194258422129511,9.79999717485429
1727705752.907997,-4.8040647606857354e-08,6.477509589428638e-07,0.9967747992332432,-0.08024960818038951,-1.4917759158959357e-07,-3.426559400845113e-07,-0.2734666361075503,0.4666370242235171,-0.06554546856867385,9.800000107346143
1727705752.9265404,-4.489827111720857e-08,6.446940896174393e-07,0.9971296948799825,-0.07571242690691599,-1.370983769096801e-07,-4.0523095737126355e-07,-0.3119390980070986,0.22436900832904844,-0.09243820168493144,9.800002196132914
1727705752.9588413,-4.168142768650631e-08,6.433842610362829e-07,0.997474933683843,-0.07101941052977828,-1.0141532822541356e-07,-4.102512373960329e-07,-0.31392499130797574,0.15517226578328808,-0.013221412981185015,9.800000045801747
1727705752.996514,-3.7453422249822395e-08,6.423118082866308e-07,0.9979006029996197,-0.06476408366202141,-9.661375634229163e-08,-4.0848916887195194e-07,-0.31326248462418926,0.15381153546344764,-0.007454406471430208,9.799999774559279
1727705753.028606,-3.43118812700252e-08,6.417087133889153e-07,0.9981935034165685,-0.06008102642718233,3.066247436822081e-08,-4.067134060360334e-07,-0.3119416739425167,0.13522321051282102,0.3353290005248798,9.800002080948495
1727705753.0601487,-3.1165592928161265e-08,6.405800059651198e-07,0.9984633402262811,-0.05541622707985733,-9.430071885067985e-08,-4.0457037479591796e-07,-0.3114552276940584,0.15435709229517094,-0.012049191646271351,9.799999989047054
1727705753.2934756,-2.702375860233949e-08,6.405088440107859e-07,0.9987941333642564,-0.0490945939664742,-8.74295322469794e-08,-4.144114544533379e-07,-0.3193697786785241,0.16983847492525486,0.005832819862443549,9.799999206229096
1727705753.3228788,-2.3817476664927706e-08,6.392997046919282e-07,0.9990180022916091,-0.044306106767267484,-9.140318899859003e-08,-4.141537821668547e-07,-0.3196067331327197,0.16179193473734876,-0.0135743600078759,9.800000030961296
1727705753.3560019,-2.06158474774873e-08,6.382311057289682e-07,0.9992203322920321,-0.03948072357230942,-8.862010513378791e-08,-4.166565927452109e-07,-0.32225805992256307,0.16523032521385628,-0.012410084722928958,9.799999979376324
1727705753.6032596,-1.718458369751141e-08,6.301254896608501e-07,0.9993970807985296,-0.034719949466836486,-7.76956240057234e-07,-4.033970059016419e-07,-0.31288962983289215,0.09286292792596829,-1.9552161422869678,9.800002619268954
1727705753.6310666,-1.2837615086700471e-08,6.151310884242809e-07,0.9995878702619608,-0.028706961259922614,-7.462524998730864e-07,-3.6737375244680357e-07,-0.2934473765367802,0.057092756381934,-1.9526598378475257,9.800002551647353
1727705753.6643927,-9.894491031512779e-09,6.04255732545569e-07,0.9997008777703045,-0.02445720721826461,-7.239878769871619e-07,-3.409182371415257e-07,-0.27835568937138133,0.032199607710322146,-1.9507579999889346,9.80000250241663
1727705753.698133,-7.211570687416842e-09,5.93690182996168e-07,0.9997911343049002,-0.02043741091645679,-7.023617776731868e-07,-3.1497761498077247e-07,-0.2628602364754339,0.009068756625956315,-1.948883125530188,9.800002454665917
1727705753.7793405,-4.020748644449473e-09,5.800727897190838e-07,0.9998807477551919,-0.015443130129037974,-6.744906493616601e-07,-2.81481981632601e-07,-0.2419236304168204,-0.01656833819028055,-1.946156297129555,9.80000239301007
1727705753.8086872,-2.1290176062826926e-09,5.897680788158854e-07,0.999928294835116,-0.011975190511617662,6.37000206254434e-07,-2.656876306123992e-07,-0.2259483969770532,-0.022741224123866012,1.7078983896937383,9.799997857478806
1727705754.0283806,-2.988475055289787e-10,5.991691203334001e-07,0.9999618367737626,-0.008736417783277217,6.181231108677148e-07,-2.524963475436855e-07,-0.2110559203137473,-0.009118921301712575,1.7101286458387897,9.799997826514058
1727705754.055167,2.04507446072628e-09,6.112618885457812e-07,0.9999887461014167,-0.004744224925364415,5.938052191542649e-07,-2.3593673960722014e-07,-0.1929928134485859,0.006446971504340495,1.7126542001936929,9.799997786811643
1727705754.0875664,3.731428535442864e-09,6.175876170958988e-07,0.9999979452437981,-0.002027192097593278,1.3592360519158103e-07,-2.1729762467219172e-07,-0.17195210289143487,-0.07763672143994371,0.4799960523138786,9.799991477853556
1727705754.1256952,5.287829240283371e-09,6.15922915451658e-07,0.9999998336667988,0.0005767720481889005,-7.231383677959859e-08,-2.1445014207793932e-07,-0.1767562042002995,0.09392760972372532,-0.07675302410957562,9.800003424888056
1727705754.1538007,6.889878383055521e-09,6.152536591940779e-07,0.9999947620710018,0.003236638716607676,-4.342881963954408e-08,-2.1619819157268776e-07,-0.17739252536090838,0.07145441185134137,-0.00440309868303735,9.800000021896611
1727705754.1891303,8.944392082514161e-09,6.148800698916564e-07,0.9999782288593233,0.0065986215979322305,-4.243891323437404e-08,-2.0341107534630617e-07,-0.16717957095106242,0.06511586804233876,-0.0034624624122620365,9.799999983999871
1727705754.3947058,1.0494480230461924e-08,6.204515701054527e-07,0.9999590328287865,0.009051666351161669,5.753693094511077e-07,-1.9835590517090976e-07,-0.1599791548288763,0.01777781011053276,1.7168128928209703,9.799997754045782
1727705754.4249003,1.1812184527579639e-08,6.228792557686092e-07,0.9999402335733347,0.010932944750456197,4.483875916090623e-08,-1.4221710810360926e-07,-0.1103860479654232,-0.1152556865273901,0.25963816156247227,9.799997238187048
1727705754.479751,1.308002634677391e-08,6.232397266890866e-07,0.9999147771906629,0.013055204148447241,-5.460703191877015e-08,-1.2810505226794482e-07,-0.10569072859746409,0.047881831677232894,0.01230446168481342,9.799999383027941
1727705754.7616482,1.4000260980281642e-08,6.251816074549398e-07,0.9998963910843786,0.014394689855784348,1.6159117842188672e-07,-9.800631169068583e-08,-0.07124040000757148,-0.23389586038413063,0.5790949103273136,9.799996807897978
1727705754.7724242,1.439805599202938e-08,6.262222108826541e-07,0.9998907594386479,0.014780703258346906,9.488342201573063e-08,-1.0682256568588453e-08,-0.0026078146791615915,-0.2854512724124799,0.39863848515875117,9.800001790973303
1727705754.8017995,1.408126235914822e-08,6.25745684551462e-07,0.9998960191034548,0.01442050556227481,-6.354238858366791e-08,3.304194457613255e-08,0.020059977988584735,-0.01464935409866365,0.00033355779480219005,9.799999966590974
1727705754.8337781,1.3716135545491232e-08,6.243504942153541e-07,0.9999021606161891,0.01398818053526718,-7.256899596212285e-08,4.9742242158454534e-08,0.034746502597450844,-0.05996420873063375,-0.03814393516778911,9.800001463658825
1727705754.9088826,1.3246508441401761e-08,6.234494053585097e-07,0.9999095318521016,0.013450952045197084,-5.910756276267916e-08,5.3121841525865857e-08,0.035946472021980425,-0.018486640934096143,-0.0003729740332372444,9.800000016436151
1727705754.9387305,1.2684466406659703e-08,6.230679316178953e-07,0.9999197680386868,0.012667181417752305,-5.639570721450217e-08,7.567959645615333e-08,0.05420001380711399,-0.04068481819043524,0.0022055006373451836,9.799999809974558
1727705755.1596045,1.1732470564519004e-08,6.216877571850985e-07,0.9999377217847267,0.011160311446532512,-7.139478200466267e-08,1.2842295975156148e-07,0.10955816770737631,-0.4154823135211142,-0.09879860343891868,9.80000051922098
1727705755.162902,1.0476177297493086e-08,6.211921689940423e-07,0.9999565037673221,0.00932687370169577,-4.658741966457749e-08,1.6557854613359118e-07,0.12517882213940962,-0.08257050385609575,0.012811926791715951,9.799999213912455
1727705755.1911654,9.13711978693529e-09,6.20419532877223e-07,0.9999723133382254,0.007441273856815367,-5.148703652222309e-08,1.6690561571042917e-07,0.12577456372339962,-0.06205818631572387,-0.002055986914742505,9.800000011251807
1727705755.2337422,7.365946386773829e-09,6.203970599635909e-07,0.9999877551301284,0.004948695729360908,1.4696585293604093e-07,1.6335487390048476e-07,0.12116717891458492,0.004156482328962002,0.5516146777968134,9.800003204924591
1727705755.2648637,6.095365716790147e-09,6.197944131745994e-07,0.9999950241304605,0.003154633724473277,-4.981398486469581e-08,1.5801145141761572e-07,0.11941862937649533,-0.05790061695611749,-0.00010247718195866859,9.799999942999557
1727705755.2978203,4.832179631355741e-09,6.192644303913255e-07,0.9999991074863698,0.0013360486817545758,-4.388480868679952e-08,1.6099354179204565e-07,0.12250220093727018,-0.07002221704515753,0.011560530268659167,9.799999348163556
1727705755.5588527,3.089971353011579e-09,6.183243706161864e-07,0.9999992239445961,-0.0012458369969057803,-4.660368884817729e-08,1.7726689773141757e-07,0.13702711830003256,-0.11012914068411266,-0.00680660829256177,9.799999952689479
1727705755.5899484,1.6687928498159267e-09,6.176206803324974e-07,0.9999944988198941,-0.0033169759672813104,-4.572810831029761e-08,1.804007303466531e-07,0.13820144609348167,-0.06962334742369942,-0.0025962198172548054,9.800000012928901
1727705755.6273723,2.304074753134285e-10,6.169359619971688e-07,0.999985215055184,-0.005437800167066853,-4.432100968115796e-08,1.8437808562414226e-07,0.14176989765018416,-0.07323667215367971,-0.00299540538642525,9.800000013562144
1727705755.884907,-1.2220717594618128e-09,6.160909592425306e-07,0.9999725937781072,-0.007403491899441117,-7.842133180784623e-08,1.6533750623799855e-07,0.10947731247402159,0.3822957331536209,-0.03729723484365769,9.799999400078816
1727705755.8947015,-2.1263796378331473e-09,6.153132455617492e-07,0.9999673713192747,-0.00807813694122761,7.820408869248153e-08,1.1181570285828465e-08,-0.006171317429268512,0.30929346175318184,0.37524930476322843,9.800002582247595
1727705755.9286232,-2.057986720425192e-09,6.148058882721561e-07,0.9999690840249288,-0.007863268656670586,-4.1387917711889935e-08,-1.61293058493603e-08,-0.015300607776102228,0.014722957228544293,0.00218999836766867,9.799999951632179
1727705755.9583993,-1.9440897596705904e-09,6.141920327938413e-07,0.9999706609950321,-0.007660101094706606,-4.071715260420675e-08,-1.3465981596022466e-08,-0.009701447779273656,-0.07326080621383252,-0.011474729616554801,9.800000011616591
1727705756.0237243,-1.8863017127983433e-09,6.134014892521905e-07,0.9999718262725364,-0.007506441286782628,-3.8956131552869866e-08,-6.721103221775904e-09,-0.007482593675068958,0.0032731121081138546,-6.861889759171166e-05,9.80000000784072
1727705756.055171,-1.8245540049231688e-09,6.128300605192914e-07,0.999973132766975,-0.007330330403598151,-3.781129936516117e-08,-1.2613499888989244e-08,-0.012248928106835918,0.009806373002724848,0.0005355063796652064,9.800000005221328
1727705756.266447,-1.7451990082350932e-09,6.121021275956179e-07,0.9999755010491242,-0.006999807224360055,-7.135936346859944e-08,-2.9497949688584632e-08,-0.04143562886053498,0.41347306105788817,-0.0404237949133554,9.799999411183798
1727705756.2768445,-9.548614750020706e-10,6.115756665827181e-07,0.9999847219896363,-0.005527728913028829,-3.512561960862234e-08,-9.398319874746824e-08,-0.07665468363954406,0.04557863599601403,0.0009463137890045931,9.799999972880043
1727705756.3066666,-2.398482462426276e-10,6.110617858110272e-07,0.9999904285523032,-0.004375248953783051,-3.435201798166231e-08,-9.449958452447119e-08,-0.07685419534548499,0.03869853622137577,-0.0007765318456119941,9.800000007299529
1727705756.340172,4.745115385323865e-10,6.105621684458081e-07,0.9999948141628628,-0.003220504154414605,-3.3336751670875994e-08,-9.463114587639509e-08,-0.0772349894709322,0.04382263302425379,-6.26919000992924e-05,9.800000007031882
1727705756.3705003,1.1919625689734144e-09,6.10076560930867e-07,0.9999978780383263,-0.002060077297609042,-3.236678465702751e-08,-9.49753778311738e-08,-0.07737721126794178,0.03891742589328608,-0.0007959641566217803,9.800000007034715
1727705756.4126277,2.1188351056023282e-09,6.09448377329249e-07,0.9999998066063114,-0.0006219219953171318,-3.118275762218408e-08,-8.12437446587111e-08,-0.06509851950932319,-0.0034791596455578393,-0.005912195618583933,9.80000002545953
1727705756.6502013,2.7110878693057066e-09,6.089920321252335e-07,0.9999999575571943,0.00029135071427061066,-3.0417909906624986e-08,-7.249650061756933e-08,-0.05415418610002411,-0.1077772001478731,-0.020203763667134413,9.80000001329873
1727705756.6813211,3.1790299417563547e-09,6.085492818977336e-07,0.9999994454800989,0.001053109265149399,-2.929965355945413e-08,-6.088910974555889e-08,-0.050381961988798005,0.02232991837566164,-0.000777815164201884,9.800000007634255
1727705756.7445724,3.776928753128676e-09,6.079763158793454e-07,0.9999978900439785,0.0020542412764134044,-2.815183265503721e-08,-6.014632891121144e-08,-0.04992605300899099,0.024706166134802948,-0.00041328410209701556,9.800000007248636
1727705756.9977045,4.217741600481964e-09,6.075081551801344e-07,0.9999958046467443,0.0028966685245799817,-3.839139753734795e-08,-7.05668876025537e-08,-0.06864821431808864,0.28730190236776176,0.004610725919047802,9.799999805496421
1727705757.0029962,4.881821543784104e-09,6.071002546780494e-07,0.9999919151787657,0.004021141222963376,-2.6411261819245533e-08,-9.217806059887866e-08,-0.0757186695144787,0.04340126316072012,-5.6565195677913365e-05,9.800000006858413
1727705757.0432115,5.807352872714139e-09,6.066300585360233e-07,0.9999846945435871,0.005532691768090958,-2.543637090986396e-08,-9.217883844700981e-08,-0.07556453492300655,0.03785373205480873,-0.0007172212870251927,9.800000002900608
1727705757.071632,6.4996040343816544e-09,6.062542060246461e-07,0.9999777811306654,0.006666126658174065,-2.471553722939413e-08,-9.210523466196299e-08,-0.07556363232172514,0.03788494540744196,-0.0007747886971683122,9.800000005524142
1727705757.1327162,7.208675420356545e-09,6.058986358820595e-07,0.9999692254149041,0.007845267538447165,-2.3970970039386318e-08,-9.617850044553236e-08,-0.07897497401478527,0.042238851113790374,-0.00036151956700655323,9.799999999805673
1727705757.1682115,7.92974863459161e-09,6.055550282099544e-07,0.9999593212567299,0.009019746748828328,-2.302077581011332e-08,-9.496267446640894e-08,-0.07780406128439021,0.03541960619611776,-0.0004662018217679553,9.79999996718668
1727705757.3872697,8.871099673949139e-09,6.045497954017087e-07,0.9999441822444349,0.010565623272785096,-1.313618414895603e-07,-9.352609293524766e-08,-0.07604786581142345,0.015776264781824464,-0.3059227379958016,9.799998223597305
1727705757.3919325,9.558917997645493e-09,6.041435895685468e-07,0.9999315778865885,0.011697843599237312,-2.0846848193040403e-08,-9.154928065220768e-08,-0.0754188335148247,0.03707091382610429,-0.0016892938288263345,9.800000043068739
1727705757.4174514,1.0236146529400952e-08,6.036039161553946e-07,0.9999178637441468,0.012816620653573585,-2.0290083980687674e-08,-9.030514118327197e-08,-0.07449147455631192,0.03627795461079246,-0.003101449344210826,9.800000105954407
1727705757.4587183,1.11323362721164e-08,6.029791481280014e-07,0.9998975816099109,0.014311753571367325,-6.585156375835384e-08,-9.076509234218026e-08,-0.07563372202732326,0.053260466567754204,-0.12920112161772562,9.799999231246371
1727705757.491228,1.181912936586479e-08,6.02665614893407e-07,0.9998806108531477,0.015451991443583835,-1.7768475827398594e-08,-9.205287445453085e-08,-0.0760707681740625,0.03800461900912716,-0.0011014203025070661,9.80000002047512
1727705757.5203345,1.2504595586828534e-08,6.021391817889338e-07,0.9998626969611506,0.01657067364989706,-6.886195854476081e-08,-8.952033772313106e-08,-0.0716077747182925,-0.02496598330218965,-0.15270647355599656,9.79999916087931
1727705757.7765248,1.3334642402167463e-08,6.006543477771806e-07,0.9998405123633207,0.01785916674122401,-2.3752518128906458e-07,-7.169504287019129e-08,-0.04744303600004736,-0.28043683046651346,-0.6578856054450394,9.799996396031114
1727705757.8069775,1.358642969526171e-08,5.993968096232489e-07,0.999834242317564,0.018206808861056967,-1.4779890404381538e-08,-2.3439977915846112e-08,-0.020284468687715832,-0.011268379006762584,-0.013325592291566702,9.800000471706243
1727705757.8490102,1.359892749469047e-08,5.92329903602666e-07,0.9998288749594372,0.018499210712764835,-6.973838095066296e-07,-2.0360002184837477e-08,-0.019143312689165495,0.0029007389164317893,-1.9234780447198112,9.800002418049937
1727705758.1023483,1.3534060773337851e-08,5.820777903676981e-07,0.9998237150687066,0.018776016240693583,-6.766040521718091e-07,-1.8717199777273804e-08,-0.018118785787544157,0.0015508202014669719,-1.9232628310958089,9.800002374747654
1727705758.1062965,1.3933552141607114e-08,5.939159626544726e-07,0.9998164713668591,0.019157859566484636,4.446675948505237e-07,-2.255735354440355e-08,-0.024627088835028683,0.1171946921426426,1.2350554281928507,9.799994792810013
1727705758.134125,1.4329008399683717e-08,5.961062166210619e-07,0.9998000364706656,0.019997176623207102,2.648096799466463e-08,-7.473503195282016e-08,-0.06587150577471276,0.105686017237393,0.09505420032571256,9.799996757066605
1727705758.1651268,1.4928386341053327e-08,5.960551283936005e-07,0.9997791986623923,0.02101318447138767,-4.321549650262901e-09,-8.109101555884782e-08,-0.06797189582763326,0.033006912162914744,-0.00015046298036665523,9.799999989792896
1727705758.2405307,1.571197381807531e-08,5.957564583874501e-07,0.9997510556546823,0.022312030768031843,-4.555652567488132e-09,-7.575091534449575e-08,-0.0634567092474311,0.025697346093475997,-0.0029828647376359237,9.800000089384453
1727705758.270327,1.624238380509699e-08,5.945828179000358e-07,0.9997300902358894,0.023232448785839188,-2.9376104631289557e-08,-7.166123786084924e-08,-0.060003723136644996,0.01726521551285809,-0.07837156358567213,9.800003449037556
1727705758.4909794,1.677184648426762e-08,5.945280004710724e-07,0.9997088653672245,0.02412849986680876,-1.5056672706041767e-09,-7.082508875673367e-08,-0.059723613600420486,0.026902462761079597,-0.000731160814393617,9.800000010399872
1727705758.4995446,1.7437590870680964e-08,5.920913353370368e-07,0.9996779536697588,0.025376937291417045,2.2588471631680013e-09,-7.409022506645256e-08,-0.06270642242788654,0.02824083185356426,-0.0037296573631644256,9.800000147498213
1727705758.5298302,1.7993911382034322e-08,5.917564949003119e-07,0.9996528923532935,0.026345679139930855,2.785736115831694e-09,-7.658667437926277e-08,-0.06482985936117805,0.03006272530600683,-0.0039403180705573715,9.800000161489267
1727705758.8269618,1.8570008956306937e-08,5.918025087551008e-07,0.9996267832217958,0.027318386945327344,3.96548306404179e-09,-7.673568806968743e-08,-0.06487538872321276,0.02847735601106002,-0.0005775616703808245,9.800000000080308
1727705758.8304534,1.9007493095016365e-08,5.88432247770913e-07,0.9996027607996182,0.028183693892647632,-1.7814059530769108e-09,-6.666852770060168e-08,-0.05669657632559645,0.016369001055678418,-0.035862275605493224,9.800001549412512
1727705758.8623474,1.9670324370996223e-08,5.885533650025087e-07,0.999570014042674,0.02932212520233296,8.891928590992033e-09,-6.712425959056302e-08,-0.05747201606347079,0.026921678812038788,-0.004351136983345564,9.800000191523687
1727705758.8918867,2.0176730000500447e-08,5.886929148862876e-07,0.9995443324291484,0.03018488874289238,1.0140968683168605e-08,-6.739478420960794e-08,-0.057551507592860054,0.02415045583633275,-0.00045357620229413443,9.799999998817253
1727705758.9223282,2.068756002216071e-08,5.893279751345013e-07,0.9995194972168218,0.030996365643153,2.1386534207406216e-08,-6.135730686493651e-08,-0.0517819565217805,0.004763923143891882,0.031675476051768875,9.799998450885635
1727705758.9941206,2.1271873061119776e-08,5.890195651620567e-07,0.9994865398640287,0.032041482960120216,-8.641346159886685e-08,-6.181076808969334e-08,-0.05504916591505085,0.07392682758715863,-0.25621995011384996,9.799998433442129
1727705759.2649882,2.1760631925720154e-08,5.890679487431742e-07,0.9994591209734485,0.03288564280402256,9.010611002580528e-09,-6.611050643050616e-08,-0.05645676450460788,0.024708503160951627,-0.0010090148739374367,9.800000031053948
1727705759.2669613,2.189262724794247e-08,5.788950276203399e-07,0.9994320575349466,0.033698106343339806,-6.708398322014162e-07,-6.125983560368895e-08,-0.05308074051095285,0.004560529720626356,-1.925291086991939,9.800002364882827
1727705759.298225,2.20084055655503e-08,5.658022904104187e-07,0.9993975829044375,0.03470549357734176,-6.443097216534187e-07,-5.4602155611860875e-08,-0.04882430183643738,-3.088321293705384e-05,-1.9248165271199082,9.800002308679101
1727705759.3337035,2.2054906585034352e-08,5.563245801461427e-07,0.9993729710469342,0.03540712838557769,-6.250997884216341e-07,-5.0033992424010566e-08,-0.045811322004297536,-0.003007934874354605,-1.9244727765551013,9.800002268023327
1727705759.411774,2.2070652469279673e-08,5.471301890105925e-07,0.9993494433711199,0.036065080528579374,-6.064611726122189e-07,-4.580629146568347e-08,-0.042948024755249156,-0.0056171664683588324,-1.9241388591974617,9.800002228575572
1727705759.4436328,2.2306123695605966e-08,5.447937380861445e-07,0.9993270253010393,0.03668101010984104,7.291645575964637e-07,-4.323767942183279e-08,-0.04012089116783413,-0.00798054033288581,1.7283489288071072,9.800024216076796
1727705759.716029,2.324414736348825e-08,5.589930126931744e-07,0.9992990421640076,0.03743560243650512,7.004190580310581e-07,-4.0331605152513196e-08,-0.036387686079876275,-0.00437477672566675,1.7284263241779159,9.79999792601061
1727705759.7176452,2.39226288042055e-08,5.69273002505538e-07,0.9992794349457408,0.03795538030630485,6.795670919428427e-07,-3.825868050387396e-08,-0.03384395082213779,-0.0020695211699546376,1.7284474243722638,9.799997894528682
1727705759.736675,2.4376169376634825e-08,5.750128542285444e-07,0.9992694403540638,0.03821760816880515,1.7041050196695724e-07,-1.0807733859090035e-08,-0.003272198545748755,-0.17763153959817493,0.3396178054158086,9.799996848593347
1727705760.0166783,2.436917045420152e-08,5.75851336077604e-07,0.9992704092193085,0.03819226699664846,3.5961574313135016e-08,3.987669846746593e-09,0.0017183451577941365,-0.001576135852573764,-1.993656001804472e-06,9.799999986904371
1727705760.0192676,2.4274165312705412e-08,5.748060914717869e-07,0.9992722970191048,0.03814284218344144,3.2484759470050586e-08,5.99081396176048e-09,0.003488312342897911,-0.0024255804058254536,-0.015424769134973761,9.800000678909392
1727705760.038921,2.4235028960634227e-08,5.753626946458069e-07,0.9992743113353899,0.038090034193345335,3.6902468823399304e-08,6.042479304733641e-09,0.0035272425736475217,-0.0010435852202848343,-3.67130735382886e-05,9.799999994521825
1727705760.0781026,2.418315798460027e-08,5.760851169867403e-07,0.9992769964944788,0.038019524939706006,3.546439565999932e-08,5.9723916088796395e-09,0.0035280951668867993,-0.001013450753585036,1.0384218861789609e-05,9.79999999288578
1727705760.1134498,2.4144480615954897e-08,5.766082486939974e-07,0.9992790071452385,0.037966641654136934,3.4412203864895707e-08,5.9192520423785465e-09,0.003528100185303931,-0.0010132740380201246,1.0437313916602358e-05,9.799999993109868
1727705760.1506336,2.4105991133944375e-08,5.771158816968901e-07,0.999281014997691,0.03791375825278753,3.339004280518529e-08,5.8683322467311866e-09,0.0035281002927403664,-0.0010132707336874974,1.0447597804764163e-05,9.799999993302366
1727705760.1861622,2.4067687483180525e-08,5.776084788674897e-07,0.9992830200514795,0.03786087474505079,3.2398838092054276e-08,5.818324723040058e-09,0.0035281002952289838,-0.0010132711614444657,1.0456985015451996e-05,9.799999993493207
1727705760.4277349,2.3942311002895007e-08,5.791769854466408e-07,0.9992975515846612,0.03747537053273026,3.260458702740218e-08,3.273322311126461e-08,0.027043257331806597,-0.02625859069856039,0.006235419315945662,9.799999598440447
1727705760.452761,2.3687154139846167e-08,5.796203002968011e-07,0.999312922110527,0.03706323923489335,2.8508013913843075e-08,3.418831536679321e-08,0.02754825483510377,-0.008439450526072497,-0.00011831928446759412,9.799999993511532
1727705760.4839609,2.3451465873873604e-08,5.803466769249112e-07,0.9993270799324746,0.036679521715747676,2.8095586937053163e-08,3.167531787808892e-08,0.025365882798530155,-0.005736436183438881,0.003069814462436003,9.799999863664077
1727705760.5659945,2.2878773357410634e-08,5.73990867252888e-07,0.9993451970884629,0.036182551815644004,-6.605253984926551e-07,3.0964316386844864e-08,0.024101283633525605,-0.00030954242979785025,-1.9210961593575053,9.80000233841879
1727705760.603603,2.228793306229095e-08,5.642946609093398e-07,0.9993575811880472,0.03583887444739997,-6.408509639571468e-07,2.8260842520243666e-08,0.022349803119007562,0.0010959812492018673,-1.9209638320699616,9.800002297586682
1727705760.6353912,2.1731598461957684e-08,5.548866522673925e-07,0.9993689471133334,0.035520522874503524,-6.217609102487718e-07,2.576423270902379e-08,0.02069065151143836,0.0022913968274620553,-1.9208319567781487,9.800002257428252
1727705760.8523269,2.174773541301997e-08,5.623295422894681e-07,0.9993827585195785,0.03512978755245799,6.941091216722424e-07,2.2267239407279266e-08,0.01895174629431908,0.0041664173224436355,1.731290878176018,9.799997912793167
1727705760.8753123,2.193468314818421e-08,5.725328995262786e-07,0.9993923151543486,0.03485685599853555,6.734338356442273e-07,2.1399234367075962e-08,0.01784446844815496,0.002932596409100705,1.731081765739961,9.799997881837212
1727705760.9078124,2.2012858060074238e-08,5.798392993683467e-07,0.999406248848673,0.034455039716825564,2.6811011063605987e-07,3.6538349125707526e-08,0.03981798139964826,-0.23920317964836738,0.6262315439804609,9.799994167424261
1727705761.190513,2.1495234723410762e-08,5.768101411005813e-07,0.9994295506919952,0.03377237337327205,-5.89891005147457e-08,5.449993486773456e-08,0.04517618421430798,-0.008826136110026268,-0.25627802091544116,9.800011534648657
1727705761.2014694,2.095553287017721e-08,5.774782551620705e-07,0.9994597065242958,0.032867841943680365,4.38637557121133e-08,5.4379602115266745e-08,0.04565949225351597,-0.018588687160210476,0.028121009602367308,9.800000174734192
1727705761.2325752,2.0545399177813068e-08,5.779862959581621e-07,0.9994820724287217,0.032180535937942845,3.217216003128731e-08,5.499335680580658e-08,0.045866681544478774,-0.011275285706403458,-0.00020808043294468336,9.799999990314662
1727705761.2661877,2.013200448816142e-08,5.785378201542127e-07,0.9995045430957912,0.03147488412271926,3.274116462506163e-08,5.707816253021216e-08,0.0478850296632632,-0.01763765958502079,0.003459506983856614,9.799999788914773
1727705761.306513,1.9555366242181936e-08,5.790561281230557e-07,0.9995349515192412,0.030493945154611235,8.780072464381493e-09,5.96572916103439e-08,0.052184600356778785,-0.06961742203918245,-0.0666799139181226,9.79999965042743
1727705761.3428364,1.9078373790362748e-08,5.794946106396547e-07,0.9995591353220943,0.029690654991276266,2.9184813850119968e-08,6.420005793593231e-08,0.05374271155952357,-0.014219859778215094,-0.000715093698548341,9.800000002736532
1727705761.5740952,1.8575962419720246e-08,5.799395013798732e-07,0.999585201966309,0.028799722388175575,2.8435527772836195e-08,7.413656653650889e-08,0.06328246662382793,-0.04376718850233415,-0.004501733547419247,9.800000002321186
1727705761.584304,1.7832603756919297e-08,5.808340830383857e-07,0.9996203508988495,0.027552750652581726,2.6844979737133708e-08,7.440521715460423e-08,0.06228272242388731,-0.014949622797707056,-3.374594502015746e-05,9.799999975393279
1727705761.621164,1.7270686463699183e-08,5.812402296940814e-07,0.9996456534516431,0.026618931888774455,2.589445984053051e-08,7.437732452603234e-08,0.06227680132958647,-0.015160553241590057,-0.000503338214482035,9.799999995416652
1727705761.7206228,1.6703251388694444e-08,5.812025726981081e-07,0.9996693668240366,0.025712974026578406,1.5127547668329903e-08,7.107023413631344e-08,0.05914880815869776,-0.0049769142914862395,-0.028929518659906856,9.80000133395305
1727705761.75149,1.6171308124113407e-08,5.815879052425673e-07,0.9996917016684428,0.024829450556038357,2.519180462186811e-08,7.02859127597572e-08,0.058893202248319135,-0.013999853190920484,-0.0005041611566934047,9.799999999179624
1727705761.7952194,1.551124353181802e-08,5.818489604048252e-07,0.9997172121588587,0.023780153762755774,2.4556609729303663e-08,6.193773755357715e-08,0.05184462101322523,-0.010923939873094455,-0.00045926103694886723,9.800000009802728
1727705761.9987688,1.4880239503270772e-08,5.753236717090614e-07,0.9997349751259853,0.02302128383722646,-6.625649208847478e-07,6.007685807619033e-08,0.049403352379131724,0.003080993983712219,-1.9202328913262603,9.800002341863303
1727705762.005982,1.4214738399594623e-08,5.655946116922456e-07,0.9997509846399452,0.022315212549741115,-6.4283453620192e-07,5.4793537251760846e-08,0.04594431306843482,0.0057623491890668645,-1.920103464700869,9.800002300875285
1727705762.0521069,1.3409520198038492e-08,5.530703094187807e-07,0.9997698981742786,0.021451123613617895,-6.174327952125596e-07,4.8381053165551076e-08,0.04161709746651428,0.0087153062469739,-1.9199389940646825,9.800002247525162
1727705762.300698,1.2866775775574637e-08,5.442942399764005e-07,0.9997821859849209,0.020870567479507607,-5.405905458086243e-07,4.2810806861926125e-08,0.03598058263301685,0.04710891682051939,-1.752791980915533,9.800003184020992
1727705762.3132594,1.2672290991840233e-08,5.436873036887167e-07,0.9997845929299851,0.02075494494157404,8.470899517841477e-08,3.7732241049655755e-09,0.0013142606191817426,0.04788424256998298,-0.03987340249341249,9.800002057635552
1727705762.3535767,1.270644278529671e-08,5.456559262814472e-07,0.999784644996262,0.020752436709948197,9.763687716690948e-08,7.089064778436711e-11,7.7936170521008e-06,0.0002841013958945566,3.334273987922788e-05,9.799999981213508
1727705762.3834283,1.2735488377220231e-08,5.470911616886856e-07,0.9997846453002521,0.02075242206465039,9.47420564762039e-08,4.7352963088087944e-11,1.6657899627445716e-07,6.098875146294855e-06,1.1576151216725108e-05,9.799999981114047
1727705762.4188707,1.2763702476353805e-08,5.484837804139835e-07,0.9997846453067489,0.020752421751618344,9.192899992498688e-08,4.571475111315691e-11,3.560731961207395e-09,1.5679125432613147e-07,1.0795009024423977e-05,9.79999998167919
1727705762.4516733,1.2791080124974362e-08,5.498350271624361e-07,0.9997846453068873,0.02075242174492309,8.919760733703259e-08,4.402471623900782e-11,7.636672924455655e-11,2.9765279804675452e-08,1.0802591679414267e-05,9.799999982227252
1727705762.7014875,1.2875244432185273e-08,5.515762533326797e-07,0.9997759700881332,0.021166238069791954,8.587282923228407e-08,-4.294039674746413e-08,-0.05496662350722689,0.3802275212361393,0.05220903917091014,9.79999992291966
1727705762.7107127,1.3542570392723973e-08,5.528242092209641e-07,0.9997406632803136,0.02277292654738533,8.31430886438155e-08,-1.3063337739391545e-07,-0.13260007841878707,0.3539692094097129,0.045432908817644994,9.799999931004832
1727705762.7409644,1.4834172033901303e-08,5.540448337513379e-07,0.9996809345774524,0.025259236766835835,8.184350341211244e-08,-1.8910297034898238e-07,-0.17163824877246536,0.04433544429227894,0.0034313991315893123,9.799999908980656
1727705762.8157876,1.680915681843644e-08,5.555813369445059e-07,0.9995877123308987,0.02871245995680266,7.809500932523036e-08,-1.9300815521914668e-07,-0.17283164026700676,0.0008528836212592371,-0.004134052558946252,9.799999988882105
1727705762.8461187,1.829960581362967e-08,5.566873462965303e-07,0.99950991409046,0.031303859739195916,7.576179143016396e-08,-1.9340148933987398e-07,-0.1728386112675962,0.0005988627776190168,-0.004170993678142602,9.799999989496957
1727705762.8783824,1.992476416579183e-08,5.577576233652038e-07,0.9994114014013651,0.03430525832358994,7.388503701564035e-08,-2.2696317019358327e-07,-0.2034525043322798,0.025196885964093033,-0.002329988055102068,9.799999981187995
1727705763.0786395,2.2318070258404173e-08,5.59102812050546e-07,0.9992499231800589,0.03872455324898505,6.96957212600928e-08,-2.655409756067584e-07,-0.24942376998127774,0.31491800873504544,0.029708517686742954,9.79999995090859
1727705763.0863478,2.4627915341738867e-08,5.600355661760469e-07,0.9990698985957102,0.04312003849306506,6.757495221761995e-08,-3.404707741654301e-07,-0.3152049802200667,0.3089240625449988,0.020189428804479485,9.799999962840424
1727705763.1158895,2.7494950358528188e-08,5.610209300787797e-07,0.9988319489681048,0.04831912375303565,7.27091877321392e-08,-3.9659455296568434e-07,-0.3543053389763682,0.07012528675495935,0.0006616602508299201,9.79999978446247
1727705763.4234228,3.0559809394313027e-08,5.61874082127742e-07,0.9985532369883235,0.053772045709868044,6.324809143226682e-08,-4.137513810737885e-07,-0.3788678330823674,0.3098898437413188,0.009925988571420508,9.799999913426849
1727705763.429394,3.527672244110252e-08,5.629570691491878e-07,0.9980520429919941,0.062386853416309784,8.474923122381422e-08,-5.098946838347644e-07,-0.45772843112437267,0.18694041861733393,0.04336007319660868,9.800000400423707
1727705763.4530942,3.927909453839374e-08,5.637213445434639e-07,0.9975931835068539,0.06933859113322766,6.61891608982713e-08,-5.280015555128934e-07,-0.4656532383503038,0.015310201936190683,-0.028141927474617745,9.800000002705538
1727705763.481816,4.3326942526489875e-08,5.643990418038618e-07,0.9970840731264496,0.07631088465774793,6.398228739308154e-08,-5.298775082414952e-07,-0.4661298756613141,0.004965182359308478,-0.030310890232401102,9.800000021364376
1727705763.5470288,4.873947838401632e-08,5.652122920339277e-07,0.9963292953864162,0.08560335948130521,6.141267849024149e-08,-5.310267148471764e-07,-0.4661596480415784,0.004318468277010764,-0.030413058344728502,9.8000000223005
1727705763.587762,5.295628298220271e-08,5.65629784248324e-07,0.995645273728674,0.09322279174875253,5.230138919267315e-08,-5.923232699253951e-07,-0.5319283084624742,0.3124265507632002,-0.022663857231175037,9.800000014281968
1727705763.8088834,5.774279052803922e-08,5.659332086700699e-07,0.9948030326401397,0.10181810374219863,5.0816762182943984e-08,-6.68253809860677e-07,-0.5976847813625182,0.31336130855846384,-0.040101845513344975,9.800000034494238
1727705763.8137238,6.503399954352669e-08,5.666922585853454e-07,0.9934204810660763,0.11452400533565038,6.820183892115668e-08,-7.429215238197192e-07,-0.650590962250311,0.05481752977054605,-0.03733741910319712,9.799999686062575
1727705763.8428028,7.07303142985758e-08,5.669420464498764e-07,0.9922523748422627,0.12423857943313338,6.093271653552463e-08,-7.484780569488791e-07,-0.6526103844928788,0.011206250365150399,-0.05901816469539355,9.80000005046043
1727705763.8745263,7.644146005447816e-08,5.670982602098972e-07,0.9909884540008677,0.1339473181390457,5.901055479080282e-08,-7.498246601705377e-07,-0.6527318579007382,0.008572041624544703,-0.05961861375809238,9.800000056538488
1727705763.9545333,8.215795438959098e-08,5.671707557943998e-07,0.9896294870591582,0.14364358093106472,5.7207546490179806e-08,-7.508898616754418e-07,-0.6527391592418896,0.00841340469253328,-0.059644359676093425,9.800000057087804
