timestamp,orientation_x,orientation_y,orientation_z,orientation_w,angular_velocity_x,angular_velocity_y,angular_velocity_z,linear_acceleration_x,linear_acceleration_y,linear_acceleration_z
1727705837.9857585,6.109008724619671e-07,-1.2923222748654597e-09,-1.427479367543949e-06,0.9999999999987945,-3.3856823156433264e-08,3.50513385479481e-10,1.633717000010668e-14,2.5221497422875992e-08,1.1965056901065568e-05,9.799972894692957
1727705838.0398972,6.104031080970994e-07,-1.287166909806847e-09,-1.427479367155371e-06,0.9999999999987947,-3.285120946747777e-08,3.4031569360025393e-10,1.0870600826909468e-14,2.5126189378606575e-08,1.1955562996707561e-05,9.799973699738157
1727705838.3125048,6.099201210323276e-07,-1.2821665541867024e-09,-1.4274793669888375e-06,0.999999999998795,-3.1875779886180804e-08,3.2991956488788814e-10,1.415600012327912e-14,2.5028594179692013e-08,1.1946338721760576e-05,9.799974480893528
1727705838.313785,6.092983776079758e-07,-1.2757310786630974e-09,-1.427479366822304e-06,0.9999999999987954,-3.062037891439017e-08,3.1692158066259544e-10,1.0417701254730159e-14,2.490909950319459e-08,1.1934488242412682e-05,9.799975486419669
1727705838.3386436,6.088482015655423e-07,-1.2710710376072882e-09,-1.4274793666002594e-06,0.9999999999987956,-2.971082966071143e-08,3.0760354914043893e-10,7.865217748094353e-15,2.4824315462129677e-08,1.1925888467866818e-05,9.7999762145114
1727705838.368071,6.084113930384487e-07,-1.2665490143766232e-09,-1.4274793665447483e-06,0.9999999999987961,-2.8828219032443134e-08,2.9857449120646947e-10,7.178222663780796e-15,2.4736198134941753e-08,1.1917542634996137e-05,9.799976920966147
1727705838.4631894,6.078490984301971e-07,-1.2607279041281985e-09,-1.4274793662116814e-06,0.9999999999987964,-2.7692005849192602e-08,2.8653400082636985e-10,1.452610432569629e-14,2.4616666760226457e-08,1.1906815440097557e-05,9.799977830371546
1727705838.494238,6.074419704361026e-07,-1.2565091750644932e-09,-1.4274793662671925e-06,0.9999999999987967,-2.686968133642758e-08,2.784397453156907e-10,7.439191075474223e-15,2.454499744144461e-08,1.1899050845944045e-05,9.799978488829849
1727705838.6799738,6.070469371029542e-07,-1.2524153681621428e-09,-1.4274793659341256e-06,0.9999999999987967,-2.6071252640629917e-08,2.7009955217233137e-10,9.989296655759312e-15,2.4464429905640078e-08,1.1891509829542592e-05,9.799979127728191
1727705838.6828988,6.066636374856871e-07,-1.2484450219924282e-09,-1.4274793658786145e-06,0.9999999999987972,-2.529686810623322e-08,2.619250596638496e-10,1.1234313115478728e-14,2.438619788516681e-08,1.1884189594414106e-05,9.799979747657366
1727705838.7126899,6.061702301860525e-07,-1.2433321350449972e-09,-1.4274793656010587e-06,0.9999999999987974,-2.429913762159202e-08,2.5172011676364526e-10,8.442798266411503e-15,2.4291039584006246e-08,1.1874754973822152e-05,9.799980545693893
1727705838.9616635,6.058129851373378e-07,-1.239634518062952e-09,-1.4274793654345252e-06,0.9999999999987976,-2.3577333390485554e-08,2.441794949396545e-10,4.570117010838338e-15,2.4224499985216198e-08,1.1867950896488012e-05,9.799981123504118
1727705838.9625938,6.054663461063681e-07,-1.2360474216889839e-09,-1.4274793652679918e-06,0.9999999999987977,-2.287737670124627e-08,2.3668273108809655e-10,9.987679161715612e-15,2.4148857137491795e-08,1.1861340410919861e-05,9.799981684143761
1727705838.99191,6.050201092336747e-07,-1.2314298436804577e-09,-1.4274793651569695e-06,0.9999999999987981,-2.197677505863321e-08,2.2709559798935225e-10,1.5295139497801687e-14,2.4053890734141064e-08,1.1852818884175229e-05,9.79998240586644
1727705839.0211022,6.046970105307355e-07,-1.2280861735640493e-09,-1.4274793651014583e-06,0.9999999999987983,-2.1323866975174212e-08,2.2067548078424025e-10,6.483395438810719e-15,2.4000556472266858e-08,1.1846650323439344e-05,9.799982928429621
1727705839.050748,6.043835068389017e-07,-1.2248406648569536e-09,-1.4274793649349249e-06,0.9999999999987985,-2.069030750308502e-08,2.1406712818931705e-10,1.1345960325131782e-14,2.3931072903515676e-08,1.1840662801428135e-05,9.799983435470011
1727705839.1059453,6.039799441924244e-07,-1.2206624927692782e-09,-1.4274793648794137e-06,0.9999999999987987,-1.987438364543903e-08,2.0581913472248834e-10,4.337555102881801e-15,2.3860822021858295e-08,1.1832954259554918e-05,9.799984088194902
1727705839.346757,6.036877418151014e-07,-1.2176352265924878e-09,-1.4274793647128803e-06,0.9999999999987988,-1.9284685835608778e-08,1.9987631623667406e-10,4.970092609396271e-15,2.380069511160537e-08,1.1827390625832692e-05,9.799984560779562
1727705839.3474638,6.03404223482845e-07,-1.21469530393086e-09,-1.427479364601858e-06,0.9999999999987991,-1.871188394207113e-08,1.941138515696917e-10,3.151327066506388e-15,2.374847974358276e-08,1.1821990625294832e-05,9.799985019321987
1727705839.370352,6.031291263244373e-07,-1.2118435608631414e-09,-1.4274793644908357e-06,0.9999999999987992,-1.815553910461687e-08,1.8807341731752243e-10,1.1655416155251902e-14,2.3680992062026727e-08,1.1816716117662182e-05,9.799985464283841
1727705839.4106822,6.027750114456807e-07,-1.2081744431217816e-09,-1.427479364268791e-06,0.9999999999987994,-1.743943407480933e-08,1.807355905709932e-10,2.2151424785444257e-15,2.3625988746376666e-08,1.1809961021393855e-05,9.799986037042599
1727705839.4820855,6.025186100820287e-07,-1.2055224052398361e-09,-1.427479364268791e-06,0.9999999999987996,-1.6921595537317042e-08,1.7491803674151017e-10,9.942469964126118e-15,2.3563085786408306e-08,1.1805064570660428e-05,9.79998645176638
1727705839.5129814,6.022698259573169e-07,-1.2029483921742802e-09,-1.4274793641577688e-06,0.9999999999987996,-1.6419274458131227e-08,1.6980878332373723e-10,8.9604275545133e-15,2.351313439411028e-08,1.180032742255502e-05,9.79998685415159
1727705839.733626,6.01949565238386e-07,-1.1996321407629256e-09,-1.4274793641022576e-06,0.9999999999988,-1.5772581034121604e-08,1.6334256087495381e-10,5.547994051457217e-15,2.3454347715107222e-08,1.1794210266766666e-05,9.799987372151227
1727705839.7352035,6.017222003300203e-07,-1.4270364463083055e-09,-0.0008226902742862752,0.9999996615901179,-1.5120483025925658e-08,-8.087723744066753e-08,-0.08147116005813779,0.37123676659309535,0.05051552149157448,9.799987684157205
1727705839.7586267,6.014983244044037e-07,-2.3811312555250896e-09,-0.002808676484506667,0.9999960556602429,-1.4805173441659944e-08,-1.7373105289471814e-07,-0.15725401861725413,0.3456797358738067,0.04293731902462531,9.799988057436519
1727705840.052579,6.01233615140996e-07,-4.408474972595306e-09,-0.006235656768780573,0.9999805581031564,-1.3560272043801282e-08,-2.0851994400124506e-07,-0.17274628911065823,0.003963011106701487,-0.0036669081621067507,9.799988581968915
1727705840.0541985,6.010101505343404e-07,-6.173647089659393e-09,-0.009526431100792432,0.9999546225255026,-1.3969044010508163e-08,-2.7752268321162865e-07,-0.24215648547658186,0.3173225846925338,0.031127522321252248,9.799988879574336
1727705840.08075,6.008392710326288e-07,-8.54682294271635e-09,-0.013675691019317315,0.9999064833647109,-1.0190770288907786e-08,-3.412842022137259e-07,-0.28512819858111094,0.06526445329763629,1.989436020207119e-05,9.799989125912282
1727705840.110059,6.00637679124178e-07,-1.1145631547149903e-08,-0.01797499058395391,0.99983843680524,-1.0730937246561115e-08,-3.4615995272125815e-07,-0.28683764829388614,0.0029936112957946108,-0.011310818804772528,9.79998957983542
1727705840.1494968,6.003576906490172e-07,-1.4617336898100437e-08,-0.02371116485554875,0.999718850807982,-1.0334867288829527e-08,-3.460876192365274e-07,-0.2868747713025946,0.0016410393871805742,-0.011510013421214096,9.799989991754986
1727705840.2078085,6.001398786840865e-07,-1.721872110265781e-08,-0.0280128467079358,0.99960756320616,-1.0047522920666764e-08,-3.459569900265607e-07,-0.28687498814656237,0.001633138851088332,-0.011511141773583157,9.799990289401096
1727705840.24045,5.998922860439048e-07,-1.9998705044771972e-08,-0.032970317261402204,0.9994563313018343,-7.7763504580746e-09,-4.1056616164509214e-07,-0.3524255720600321,0.3061904054068475,0.026867711409918157,9.79999062154149
1727705840.4570878,5.995291809436201e-07,-2.451418016973886e-08,-0.04084873293142033,0.9991653421819321,-1.1964473835913465e-08,-5.002968945100061e-07,-0.4270774929714352,0.3105178775731644,0.0011058436457548984,9.799990934492525
1727705840.4744596,5.993580011542944e-07,-2.8542974334623653e-08,-0.04770568199022296,0.9988614357885119,-1.044968391156887e-10,-5.56455984587814e-07,-0.4639771904885279,0.06317512379606766,-0.00955762477601771,9.799990937836787
1727705840.5038593,5.990824171612867e-07,-3.275754350514532e-08,-0.05468867858297438,0.9985034543928668,-4.282234088286363e-09,-5.62053546202735e-07,-0.46653023116881776,0.007856012186968356,-0.02979701922024533,9.799991497430478
1727705840.5959418,5.986622196778881e-07,-3.8388136720869166e-08,-0.06400555168943184,0.9979495424882819,-4.2050026764978296e-09,-5.622350002850105e-07,-0.46668975046100664,0.00439320251705104,-0.03047175425882213,9.799991838637375
1727705840.6299546,5.983145623601024e-07,-4.2607383766885385e-08,-0.07098996466536406,0.9974770297688316,-4.111641697985455e-09,-5.621165403456082e-07,-0.46669336849418847,0.004314624677198625,-0.030483538701742745,9.799992082132306
1727705840.657908,5.979208077552059e-07,-4.7005688960521675e-08,-0.07857504573706431,0.9969082014844991,1.0260488049425071e-08,-6.210973361981688e-07,-0.5221224444740502,0.16718141113087437,0.018792915607132844,9.799992671843945
1727705840.8566544,6.039486082632713e-07,-5.228110332993428e-08,-0.08633595234726066,0.9962660805888774,6.405188444931525e-07,-6.257440054426623e-07,-0.5116847780612424,-0.09770917585747592,1.7484083855534558,9.799990261913088
1727705840.8716483,6.144112418094012e-07,-5.942210723813167e-08,-0.09600991306667,0.9953803778418326,6.179649203036696e-07,-5.850895463281607e-07,-0.4680082809667493,-0.06549804709680822,1.75897851134778,9.799995611760172
1727705840.9067042,6.190963755675866e-07,-6.422030013162458e-08,-0.1025367633786558,0.9947292154930617,2.400230298626767e-07,-5.376764476241133e-07,-0.4167378858612958,-0.24670659099577477,0.7328685548412625,9.799990572415215
1727705841.1735659,6.251990423149161e-07,-6.871223754026128e-08,-0.10831239816109745,0.9941169068093532,5.594834451167933e-07,-4.875050115319491e-07,-0.381468284895343,-0.022041062296568697,1.6844863995337187,9.799990995286922
1727705841.181852,6.311460372771335e-07,-7.417547228978514e-08,-0.11536947069097003,0.9933226491085773,4.239346236909177e-08,-4.37339836592842e-07,-0.3329072631767862,-0.10360025292743508,0.29610420261383696,9.799989183581964
1727705841.213105,6.297769701494645e-07,-7.725510372186383e-08,-0.12023809456848678,0.9927450833996292,-7.7843529513823e-08,-4.1974042658009124e-07,-0.3261309007370994,0.06795664691555321,-0.013587705154396905,9.799993643257306
1727705841.246006,6.279354750557862e-07,-8.023145313539674e-08,-0.1250890258654751,0.9921455213866692,-8.348958093212424e-08,-4.1788036873007214e-07,-0.32574159294934035,0.07188513659659243,-0.036315615858646774,9.79999488501761
1727705841.3294544,6.283599199709416e-07,-8.45515908885797e-08,-0.13148945871071788,0.9913175688181666,4.173254465604386e-07,-4.0973482619635276e-07,-0.3135941916630048,-0.10047275020980402,1.321662513149045,9.800002108431308
1727705841.3595326,6.287890625589911e-07,-8.751451781400358e-08,-0.13568256274965812,0.9907523616753491,-6.44395454127679e-08,-3.564682503346611e-07,-0.2754007656110745,0.01856888559841932,0.02630947232073507,9.79999236504368
1727705841.4964492,5.979936382810826e-07,-1.2813001329039523e-07,-0.20774400341763893,0.9781832287683314,2.2093988342583953e-07,-5.467522675851752e-07,-0.4496673795353446,0.18660702533352838,0.6776431246273863,9.799991681818277
1727705841.53728,5.979694239912783e-07,-1.3408910262902223e-07,-0.21726616399964765,0.9761123982311168,-3.910121453561572e-08,-6.265199308008096e-07,-0.5189055663378301,0.38617638787956093,-0.01845614062866636,9.7999966511685
1727705841.5844536,6.205399032943806e-07,-8.904025745090697e-08,-0.13968605328753508,0.9901958425061979,-7.409102226794974e-07,-3.396984191267828e-07,-0.26487037491135196,0.005070129100441643,-1.874171696759527,9.799997484109133
1727705841.5994964,5.96914375936861e-07,-1.3896865078785418e-07,-0.22524246888432842,0.9743027405332065,-2.0514266704076106e-08,-6.784897477381959e-07,-0.5506468054011804,0.1314144031894998,-0.012806456329879324,9.79999593179034
1727705841.6036918,6.161203232594443e-07,-9.109220813555541e-08,-0.14406210546789355,0.9895686483351065,-2.2576740162692036e-07,-3.8105055204153996e-07,-0.3120226112693888,0.30446006250793,-0.4461981721936528,9.799995602639699
1727705841.633366,5.950593077255164e-07,-1.438448793204385e-07,-0.23337234082136776,0.9723874487770707,-3.8515868358376725e-08,-6.905174196076593e-07,-0.560404225416708,0.11615044205718303,-0.07067383867054322,9.799997300054656
1727705841.641749,6.009192233294338e-07,-9.268303175675749e-08,-0.14996838083416453,0.9886907932966753,-7.293973770543888e-07,-3.6006144805950075e-07,-0.2903951697651568,-0.03303968336173925,-1.952699179869034,9.799997357570241
1727705841.7041154,5.911771701849089e-07,-9.385176390213779e-08,-0.15418879227793214,0.9880414041605312,-6.505840393252003e-07,-3.388174100649676e-07,-0.27807045634357336,-0.06139203286556495,-1.7887463734467954,9.79999775712864
1727705841.734134,5.878862954475045e-07,-9.594846246025413e-08,-0.15867082876478794,0.9873315390985646,-1.472642303933092e-07,-3.6868302791490873e-07,-0.31726611000359833,0.2264879964989191,-0.38699069688893467,9.799996020547578
1727705841.781406,5.836300489816119e-07,-9.926707028034967e-08,-0.1655305473723933,0.9862046632855908,-1.452865442785427e-07,-4.281248086018531e-07,-0.3691932641112378,0.21772907302647546,-0.4105798230146713,9.799995932937652
1727705841.923737,5.987968173006285e-07,-1.5196629449887584e-07,-0.24419776757859585,0.969725450995924,5.809815666845403e-07,-6.873555305780538e-07,-0.5505087665955459,0.0058657584938937675,1.6472563968043612,9.799994496020071
1727705841.936533,6.024786294044058e-07,-1.5828582007461257e-07,-0.2522382732388291,0.9676651556778851,1.9737796840204506e-07,-7.009172054501699e-07,-0.5624425305642494,0.2491316853868071,0.6515063105845595,9.799994848666858
1727705841.958924,5.819560812435637e-07,-1.0244540500032312e-07,-0.1715088843136276,0.9851825732325686,-8.670410276260738e-08,-4.894529285834044e-07,-0.42326518956657866,0.2549938571691385,-0.2602607585651228,9.79999396620745
1727705841.9656842,-6.036202935860183e-07,1.6425248359179988e-07,0.2606927621492622,-0.9654218164940114,1.3599268607097955e-07,-7.440730445066556e-07,-0.5949112831230725,0.30844337830624297,0.4952326966459594,9.799995095857383
1727705841.9766493,5.793735137477109e-07,-1.059227039128072e-07,-0.17821104735352833,0.9839922878766945,-1.3381040588699206e-07,-5.432622017405903e-07,-0.46871643382685696,0.21687936131724053,-0.41471506704247085,9.799996057035548
1727705842.0362847,5.783097819878308e-07,-1.1143333732086507e-07,-0.18763437301000552,0.9822389434678279,1.6514015228651607e-08,-5.664625725078957e-07,-0.48092424866161637,0.010993339242974418,-0.033993589100711194,9.799995867416197
1727705842.0671566,-6.017443534742142e-07,1.717561064682768e-07,0.2723871119085292,-0.9621877474099007,-1.2443082006234567e-08,-7.715791949433497e-07,-0.6088642163107272,0.1444343319494754,0.05976690823494962,9.79999569700023
1727705842.0942373,-5.996408801923409e-07,1.7723209793402709e-07,0.2811310697774922,-0.9596693814045395,-3.729836027314632e-08,-7.672698774181424e-07,-0.6053299352107531,0.12779731183635584,-0.012265670468363117,9.799997046909914
1727705842.125468,-5.984244402539508e-07,1.829528538064146e-07,0.2898894289456185,-0.9570601438703794,1.0115853293468784e-08,-7.74704959650296e-07,-0.6122172834810569,0.16565333403727087,0.1239839566622608,9.799994740561015
1727705842.292238,5.841062796806641e-07,-1.1689732469751869e-07,-0.1946074734518078,0.980881201408381,6.608641323198269e-07,-5.587216551902504e-07,-0.46612418016022017,-0.09862115423260687,1.7590896238668052,9.799993673650437
1727705842.3019145,5.928136578014218e-07,-1.228951792832436e-07,-0.201244069708915,0.9795411295125013,6.411624130782436e-07,-5.427167117794197e-07,-0.44404277720151664,-0.07246966453655078,1.7641477158598613,9.799993758743799
1727705842.3299625,-5.990977066577716e-07,1.8931779487617593e-07,0.2986222406236146,-0.9543713938528005,5.586398390554758e-07,-7.703521738722284e-07,-0.6053323548506617,0.07112764176434978,1.6329512427293214,9.800006881545347
1727705842.3421435,-6.004539426610006e-07,1.9813857060020207e-07,0.3105819472291829,-0.9505466080392528,1.771886145566878e-07,-8.166499001807468e-07,-0.6431468198350305,0.3232455054960583,0.6296240358121318,9.799996505335887
1727705842.3795204,-5.999101097486582e-07,2.046716138923174e-07,0.31996937196024694,-0.9474278869692212,-3.05844325807722e-10,-8.521001882018711e-07,-0.6633587622952144,0.22799225448366886,0.1284060147604312,9.799994675002848
1727705842.6197853,-5.93639950969397e-07,2.0937327741921763e-07,0.32936778999507943,-0.9442017045702475,-7.754564758650756e-07,-8.496881266420031e-07,-0.6595351525908904,0.15560234726849678,-2.0340046343594684,9.799985961027396
1727705842.637537,-5.76618416233308e-07,2.121634896055567e-07,0.34157526136515776,-0.9398544253356189,-7.452033815736447e-07,-8.020972889861272e-07,-0.6407853069080593,0.09354243851931798,-2.0290374003104708,9.800000237503484
1727705842.673041,-5.667479767675061e-07,2.1480499596696493e-07,0.35027751498528825,-0.9366459643298335,-4.363621962704709e-07,-7.464124141923774e-07,-0.5997715307429597,-0.1571317058007578,-1.245769861200949,9.800000431371213
1727705842.6976783,-5.60252409258357e-07,2.1801681131479213e-07,0.3580583952979621,-0.9336991943641628,-2.587537195142378e-07,-6.560348926700603e-07,-0.528673239063176,-0.287918457855029,-0.7811942778591441,9.799999529184786
1727705842.759183,-5.537264981452055e-07,2.2179167645242388e-07,0.36664256991816396,-0.9303618790145307,-2.3270292008582285e-07,-5.18306437783368e-07,-0.41943738213500653,-0.328860908757165,-0.7136526753041603,9.799998716793002
1727705842.7890456,-5.505035147401236e-07,2.2466992411527335e-07,0.37294464693572327,-0.9278535931501453,-1.4608555985827592e-07,-5.454516546142593e-07,-0.4675282870752591,0.2621979132338442,-0.41070879936702565,9.799998212514996
1727705843.0043206,-5.444957598596779e-07,2.2684038520659476e-07,0.3797567823618652,-0.9250863669138223,-6.60419812460474e-07,-5.848961217684307e-07,-0.49040810379934346,-0.04603018205911187,-1.8982615526666609,9.799990019601083
1727705843.0056274,-5.378238439775281e-07,2.2871599307788563e-07,0.3866099668664072,-0.922243315789935,-2.413332494263462e-07,-5.811773301215218e-07,-0.5036917539132438,0.15882049259095096,-0.7481144122405418,9.79999930692876
1727705843.0354888,-5.327522803332309e-07,2.3310721274378492e-07,0.39648121011999704,-0.9180428367028657,-1.228152456015224e-07,-6.373524803477354e-07,-0.5582535546368295,0.2258113771270395,-0.4410846555344832,9.799998726055737
1727705843.071267,-5.291765669338627e-07,2.369318042735205e-07,0.4045640087165391,-0.9145096843942485,-1.160457909336737e-07,-6.871852649168689e-07,-0.6030265694966537,0.22211594113335204,-0.44373635173500475,9.799998695300053
1727705843.1010334,-5.273036431001007e-07,2.4183802014053115e-07,0.4129350922792966,-0.9107604567414815,3.5145780477585735e-08,-7.075252604227914e-07,-0.6129918625324536,0.021358611969320696,-0.058414334847192044,9.799998430790577
1727705843.142426,-5.249569613507207e-07,2.487222966336531e-07,0.42463433498425307,-0.9053649438497957,5.946468408040569e-08,-7.676077165682277e-07,-0.6708142326375949,0.19839125087881895,0.021098879738507506,9.79999894221401
1727705843.3350842,-5.229461016749991e-07,2.5423118218080423e-07,0.4339122202986389,-0.9009551515337305,2.1915250191078564e-08,-7.974852836179512e-07,-0.7001490230233821,0.31685266468853457,-0.07112572998337363,9.799998081562666
1727705843.368057,-5.205127513116411e-07,2.5999331848439914e-07,0.4439393736786151,-0.8960568243685779,2.1083724722297456e-08,-8.749169705804598e-07,-0.7658917278217966,0.3176422156141584,-0.09384513120768384,9.799998476097462
1727705843.4141843,-5.175026885867758e-07,2.6863631269302845e-07,0.45802577808964295,-0.8889389105023118,4.160887653182717e-08,-9.222522284585301e-07,-0.792829954523745,0.026463632045989387,-0.0839014175110314,9.799998479019848
1727705843.6822145,-5.176628630482473e-07,2.765416633386199e-07,0.4685381899177224,-0.883443243558,6.759937763679272e-07,-9.21449068673892e-07,-0.7858589826316228,-0.10563893987266862,1.6629978848820364,9.800009082420338
1727705843.684358,-5.231657485902905e-07,2.8733478125742893e-07,0.47872502101696646,-0.877964893519068,6.558650771087107e-07,-9.137451849590927e-07,-0.7638116360825354,-0.061504211636771854,1.671850158755848,9.799996401680888
1727705843.7082913,-5.283058740989786e-07,2.9801032712163364e-07,0.4885658113318827,-0.8725270471436695,6.36269879462345e-07,-9.053787409518071e-07,-0.7425084083164735,-0.019748416300472745,1.6801338025115002,9.799996406746224
1727705843.7524965,-5.343270607108911e-07,3.118776202344534e-07,0.5011899209366384,-0.8653373117756701,5.770032004067044e-07,-8.955481195681592e-07,-0.7180200110995124,0.052397540430751566,1.5972574335881502,9.799996536317648
1727705843.811338,-5.363516447059328e-07,3.208878405063038e-07,0.5102622470153101,-0.8600188598341876,2.2285845580307626e-07,-8.771543192580563e-07,-0.68802690624804,-0.04038275905993295,0.6520933793391473,9.799993125978625
1727705843.8419218,-5.353441101533158e-07,3.2791116368766106e-07,0.5189751267201478,-0.8547893412095242,5.583398098570424e-07,-8.535224161163594e-07,-0.6728050119052097,0.0854951841023972,1.6126588608198327,9.800008473768884
1727705844.0828753,-5.357431747370168e-07,3.3828297200384835e-07,0.5303181214149122,-0.8477987320694439,5.463540896657795e-07,-8.485938219958359e-07,-0.6617577828447461,0.11047453455686103,1.6164907934966057,9.80000792880657
1727705844.084715,-5.391160773990855e-07,3.4802416450036405e-07,0.5385845435810287,-0.8425714743659455,5.298606090253112e-07,-8.423894695761149e-07,-0.647234284532167,0.14188488595255558,1.6214124384403101,9.799996608537901
1727705844.110736,-5.394116129055793e-07,3.5577987382579756e-07,0.546564410382595,-0.837417067716385,2.8930932323155538e-08,-8.271438650522849e-07,-0.6284739457716801,0.18586943906484493,0.27983871664233495,9.799991205454567
1727705844.1458993,-5.345203127743756e-07,3.625450185582328e-07,0.5569984056811728,-0.8305135616401544,1.5347326416873128e-07,-8.185158256687453e-07,-0.6250459913114409,0.24033333666555398,0.6299863207564409,9.80000274982564
1727705844.1851354,-5.302648791625992e-07,3.671917058453492e-07,0.5647506626543302,-0.8252615882440419,-8.123490701653394e-08,-8.174495976033914e-07,-0.6235861728002252,0.23484347610701775,-0.02007433471411371,9.799998821039264
1727705844.2063274,-5.268064223614266e-07,3.7234211242233846e-07,0.5723877824559527,-0.8199830647609381,1.7488399497360463e-07,-8.06992480294545e-07,-0.612257046095292,0.10771749327776224,0.6693342455949467,9.800003151307143
1727705844.4599338,-5.225848327688852e-07,3.7677828424763944e-07,0.5798172766539008,-0.8147465407678873,-8.604833107002116e-08,-7.91323180354763e-07,-0.6045540051226186,0.22959248428524928,-0.03158350281367234,9.799998804644185
1727705844.4989007,-5.261242853941042e-07,3.8916308753534886e-07,0.5894359031659304,-0.8078151496837228,4.7355444317523505e-07,-7.796312941787304e-07,-0.5849756959153513,0.17781599781114918,1.5566098090133302,9.7999962995495
1727705844.5327027,-5.232788751292838e-07,3.943405869765964e-07,0.5963545535999784,-0.8027211510855692,-6.805432386005701e-08,-7.628234840458295e-07,-0.5719421175792582,0.26575601125890075,0.08926764394103776,9.799996032218647
1727705844.8381708,-5.185899204160337e-07,3.980695383555427e-07,0.6032029472941911,-0.797587740863144,-1.049320644728648e-07,-7.581561252894019e-07,-0.5697726960692161,0.2649693031746138,-0.019188835600722192,9.79999909167358
1727705844.8418486,-5.084826969190893e-07,4.002585409871733e-07,0.6126681681533597,-0.790340253138601,-8.685027784649753e-08,-7.962081699366901e-07,-0.6072526438299448,0.32080677866903684,-0.007200335450934687,9.800004961682058
1727705844.864006,-5.036289543394116e-07,4.0417758714665496e-07,0.6198603582882841,-0.7847121358958984,-9.714203324913804e-08,-7.98746624854413e-07,-0.6091206220955583,0.2830755180373342,-0.04876899127380047,9.79999920360804
1727705844.892857,-4.987593980621122e-07,4.080579387451789e-07,0.627005274914817,-0.7790150096298398,-9.482709024848044e-08,-7.970142409242973e-07,-0.6092339853067051,0.2807622608960543,-0.04964847440670893,9.799999241369397
1727705844.9711258,-4.919849828672035e-07,4.1294739840678163e-07,0.636460563890866,-0.7713092444741656,-9.43956634326033e-08,-7.951903979536264e-07,-0.6102495355516504,0.2812681947853442,-0.05942507251008238,9.799999500631921
1727705845.0025105,-4.870278087995063e-07,4.1666606728535906e-07,0.6434729651680382,-0.7654688387501098,-1.0198957509249816e-07,-7.896399564576749e-07,-0.6065154113335635,0.2523919870689021,-0.0904439661794955,9.799999352018721
1727705845.2515156,-4.821784544589059e-07,4.2037181710288e-07,0.6503749504265561,-0.7596133383881863,-8.076172685960459e-08,-7.815104149093387e-07,-0.6023267858432405,0.2620788357716233,-0.035655799960064016,9.79999943926733
1727705845.2550797,-4.781677350742734e-07,4.2480598345681407e-07,0.6572849177204331,-0.7536421809697453,-9.967618526274576e-08,-7.882289067436989e-07,-0.6069709006354166,0.2564907203119688,-0.09050938050505701,9.799999396864692
1727705845.275308,-4.7159681911906193e-07,4.295635568012663e-07,0.6663194526579994,-0.7456664046402636,-8.004313095138671e-08,-7.764722178627736e-07,-0.6004460883503119,0.2629332659861885,-0.04216190480987801,9.79999960489419
1727705845.304645,-4.6687986425921097e-07,4.332159157546536e-07,0.6729890056797638,-0.7396524847749494,-7.29533213376044e-08,-7.714116902225683e-07,-0.597868732170648,0.26533271871148817,-0.02663840729386523,9.799999365573045
1727705845.3363235,-4.6218224456403454e-07,4.3682190823805226e-07,0.6795776228434659,-0.7336036085857399,-7.24227281757816e-08,-7.66867587585745e-07,-0.5955323126025821,0.266247070586793,-0.029268518358944406,9.799999351778533
1727705845.3764434,-4.5503498468718215e-07,4.40714738852237e-07,0.6882913888453506,-0.7254343278622379,-2.9324713287372643e-07,-7.686965865817198e-07,-0.6033862961604888,0.3953574989752428,-0.6320870257100406,9.799995911274811
1727705845.5997162,-4.4980683367232417e-07,4.438180869238991e-07,0.6948375316907166,-0.7191667432199245,-7.994896180341934e-08,-7.715536528123175e-07,-0.6038010629098928,0.27125813381985053,-0.07252380383345139,9.799999992292701
1727705845.6285374,-4.4932759276405454e-07,4.5144982363323334e-07,0.7011802268934049,-0.7129840737445035,4.1288081909875104e-08,-7.548296445476734e-07,-0.5833968579324531,0.20880907820643752,0.2832841930248767,9.799991885523838
1727705845.6741583,-4.4360774300530767e-07,4.5642508446702726e-07,0.7094036942513373,-0.7048023826450573,-4.974878046201126e-08,-7.461765198683712e-07,-0.5796237572607738,0.28277691182837633,0.042833656460092635,9.799997451844156
1727705845.9362986,-4.388943370173217e-07,4.596834171176537e-07,0.7154910570522568,-0.6986218914962802,-7.126245602376612e-08,-7.427528379918814e-07,-0.5775606479011524,0.2744820443180963,-0.021714421377611065,9.799999453265748
1727705845.9381554,-4.356168828088738e-07,4.6397221619935067e-07,0.7209409330428009,-0.692996515909691,1.0825259515695617e-07,-6.543885274255492e-07,-0.4976978284921868,-0.08147770771635812,0.44597731923234085,9.799999250964428
1727705845.965646,-4.3220264073103143e-07,4.6711870044156416e-07,0.7257751330794427,-0.6879320142304122,-7.415431901740303e-08,-5.921580497205664e-07,-0.45964680022035864,0.16197082655448997,-0.009262989380915713,9.799998856135696
1727705846.0082412,-4.2677269108429605e-07,4.6989688578478007e-07,0.7319888495732656,-0.6813166107618426,-8.947140103206904e-08,-5.764586757052951e-07,-0.4505465805569759,0.1997723770335048,-0.0522477957268943,9.799999573330403
1727705846.0748994,-4.228584619237555e-07,4.7200861134011236e-07,0.7365399444866758,-0.676394049482373,-6.924367552977402e-08,-5.682151302861014e-07,-0.4455686295908594,0.2087160425217863,0.000121910934158513,9.79999960006139
1727705846.1060293,-4.1898730885337674e-07,4.740875520151371e-07,0.7410316719947878,-0.671470074612569,-7.737940063626132e-08,-5.645595938406829e-07,-0.4441081297625256,0.22391112795106782,-0.02521555714634482,9.799999535718523
1727705846.3441284,-4.1395552833709377e-07,4.765406250463667e-07,0.7465672766604665,-0.6653099288447272,-7.766999005918398e-08,-5.169686131990385e-07,-0.4074558752078172,0.17337074757867166,-0.0329238222420851,9.799999564722665
1727705846.3460774,-4.10628448640669e-07,4.781562672976679e-07,0.7500623045859175,-0.6613671742979575,-6.314641047505793e-08,-4.2808375926851986e-07,-0.3320251243609042,-0.05640910029284999,-0.01648363164857728,9.799998917040192
1727705846.3634505,-4.076576711207508e-07,4.79389456646473e-07,0.7532604932661578,-0.6577223040797906,-7.24814225481391e-08,-4.032339402631129e-07,-0.32222782748303164,0.15560919251876276,-0.014723025773606502,9.799999588715492
1727705846.4074407,-4.0374569933883633e-07,4.80976226416988e-07,0.7574809993669145,-0.6528572091948638,-6.989179203535505e-08,-4.0182241472920357e-07,-0.3220130456281148,0.16301662534496403,-0.013863285606040731,9.79999961321467
1727705846.43554,-4.008246069123753e-07,4.821786140973689e-07,0.7606461951998323,-0.6491666702223902,-6.792327320919268e-08,-4.053609918605748e-07,-0.32557750698631205,0.17537368377581297,-0.012639169650851887,9.799999620807213
1727705846.468723,-3.956439673317299e-07,4.807428642902109e-07,0.7637947988808684,-0.6454591429379137,-7.635205673877184e-07,-4.022252675140243e-07,-0.3211732838186157,0.10410842761654744,-1.956434893495604,9.79998828603863
1727705846.4977212,-3.862375017876612e-07,4.7403764785841947e-07,0.7668036512707569,-0.6418817339646465,-7.407145275685309e-07,-3.7564073279959074e-07,-0.306812485890732,0.07625361053932582,-1.9545051491122878,9.800002158455456
1727705846.7475147,-3.7432454981804363e-07,4.652212071140866e-07,0.7705705615711688,-0.6373546968835618,-7.112817920297168e-07,-3.408855594481232e-07,-0.2869586597455986,0.04162724001950126,-1.9519299597092712,9.800002108856354
1727705846.77876,-3.7002510742018506e-07,4.6379529078982357e-07,0.7732083354337861,-0.6341520874485564,6.276015016846565e-07,-3.1650964248348195e-07,-0.27118429716919834,0.0051631676665438294,1.7016053059371805,9.80002376083828
1727705846.8093817,-3.7412148672638915e-07,4.7240610170199764e-07,0.7756785375577807,-0.631128201217359,6.091349557429148e-07,-3.0269683210515345e-07,-0.2549492846900456,0.016961709298437183,1.7039923532718435,9.799997481065809
1727705847.0581276,-3.7723636213246695e-07,4.807550881206095e-07,0.7785836543183462,-0.6275408299289508,1.9872703656623724e-07,-2.5597940014773894e-07,-0.2034142476735298,-0.2159830997495696,0.5950551133456571,9.79999726479375
1727705847.0753741,-3.7765383474119966e-07,4.837536187777065e-07,0.7800753708348624,-0.6256855566628298,1.6590571914314753e-07,-1.7310173488283864e-07,-0.13661034865058358,-0.23858052865922033,0.5225203803304452,9.799998934799666
1727705847.104652,-3.7722674731010337e-07,4.848501101433468e-07,0.7812008704835747,-0.624279744950393,-3.792725893885218e-08,-1.3575813080217682e-07,-0.11808546201967512,0.03900970391219446,0.0073861231310328145,9.799999193708961
1727705847.1822083,-3.7546240120489825e-07,4.846360365057629e-07,0.7826638977907673,-0.6224445542332162,-4.112753779659666e-08,-1.3392491163941485e-07,-0.11713127445480633,0.05209734641753574,-0.006456969222275904,9.799999915669646
1727705847.206354,-3.747551393480474e-07,4.852507187289538e-07,0.7837288244958899,-0.621103155404893,8.374361122868339e-08,-1.2914389472775376e-07,-0.10830645270215,-0.07090422747481939,0.3195652963800195,9.800001722211292
1727705847.235931,-3.738084154013995e-07,4.853995672744375e-07,0.7847092431210612,-0.6198640203786601,-3.8173686335107715e-08,-1.1919108696872759e-07,-0.10498559902850944,0.044971298585787835,-0.0009243986258299952,9.799999686860435
1727705847.4466345,-3.749067391049066e-07,4.880722455575257e-07,0.785552462689832,-0.618795061681621,2.392179016806956e-07,-9.405646604538227e-08,-0.07506082206770444,-0.19871995437791423,0.7428231090057128,9.799996571232999
1727705847.47263,-3.7604572596316745e-07,4.900730124191176e-07,0.7858970731838764,-0.6183573322607531,-1.8453464197387849e-09,-1.418891739729233e-09,-0.0072166417137473566,-0.09522031389596085,0.11168987338809726,9.799996779787946
1727705847.5027878,-3.763010480178227e-07,4.901791456555596e-07,0.7859375372920429,-0.6183059012130943,-4.4783200358759265e-08,7.288390153171526e-09,-0.004023753926769143,-0.0004654007569578698,0.008738759942778042,9.799999347132852
1727705847.5384028,-3.7590186195244863e-07,4.894122299594642e-07,0.7859396090787547,-0.6183032677260838,-4.997189325260404e-08,1.4220117960159076e-08,0.00233902937110003,-0.019733425646788476,-0.012741467272238167,9.800000224758039
1727705847.5812075,-3.7555623024256026e-07,4.88531414414624e-07,0.7859047512712332,-0.6183475737228386,-4.4446981076746874e-08,1.535220761770507e-08,0.002866410131694944,-0.0015202290775437153,-8.508644808479428e-06,9.79999977284162
1727705847.61267,-3.75682653880774e-07,4.88142560982287e-07,0.7856602868279756,-0.6186581557702149,-4.2141475291616995e-08,4.742568551645095e-08,0.029150151636978525,-0.034665107944687634,0.0010171183596518224,9.799999605570461
1727705847.8439727,-3.763367137478892e-07,4.881424454839485e-07,0.7852477446615478,-0.6191817015251442,-1.0533457926515949e-08,7.668404396564355e-08,0.05491855975300069,-0.10951318988794928,0.07980236924395726,9.799996821642909
1727705847.9066064,-3.765670445741592e-07,4.868923207527957e-07,0.7845408195303972,-0.6200771746244124,-4.2246063322339755e-08,8.33250693423778e-08,0.057255438792170064,-0.02905400350022156,-0.00043734507341713203,9.799999794367332
1727705847.938274,-3.7673923537288333e-07,4.859667405935014e-07,0.7840206327154212,-0.6207347641917056,-4.101358527280923e-08,8.102462015183403e-08,0.05573549193591383,-0.026632379790836484,-0.00012825659628494063,9.799999797712658
1727705848.1771274,-3.7674682237150976e-07,4.847764024075459e-07,0.7833869117944116,-0.6215343485510981,-4.700980562234358e-08,1.0362649959948435e-07,0.07642667197165941,-0.098937386454082,-0.03178159758690563,9.800000834730723
1727705848.1964269,-3.7724317044297337e-07,4.839512506829649e-07,0.7826581082773366,-0.6224518339175842,1.1703845855483193e-08,1.086123890779318e-07,0.07862881608695052,-0.046881004493902555,0.13480289602814532,9.800000623141848
1727705848.237062,-3.7774704222647064e-07,4.826379882289985e-07,0.7816757044447619,-0.6236850912763664,-3.666616390404611e-08,1.0880117808613336e-07,0.07885646928429602,-0.039334548488727215,-0.0007339385693811174,9.799999818934463
1727705848.2666066,-3.7808187841914403e-07,4.816144240219688e-07,0.780943464254882,-0.6246017176066752,-3.6643142957572095e-08,1.0714080813630085e-07,0.07777234618322733,-0.03554628187391025,-0.0033778943578248906,9.799999964273804
1727705848.3470154,-3.7844234408031214e-07,4.806473418568687e-07,0.7802150292852206,-0.6255113972399609,-3.447333355253362e-08,1.0643205799680963e-07,0.07768318299805396,-0.03861529456984686,-0.0007551615776329927,9.799999832155017
1727705848.390956,-3.7894070421976454e-07,4.793554489389516e-07,0.7792106903313383,-0.6267620761285624,-3.3353381245830316e-08,1.0850429809085614e-07,0.07972377515312158,-0.03857633247972474,-0.0014723369307405858,9.799999875719427
1727705848.597193,-3.791929616645378e-07,4.782485995761242e-07,0.7784502570432135,-0.6277062986054721,1.1489997132427573e-08,1.0976004441304537e-07,0.08326743043386851,-0.0918859242256372,0.11020380772063966,9.800002254201468
1727705848.6042993,-3.7964132737015983e-07,4.773258603976397e-07,0.7776536726727162,-0.6286929022808065,-3.057685259104567e-08,1.1381312665347345e-07,0.08468748732468004,-0.04316366725506372,-0.0007378172379493058,9.799999833840943
1727705848.6499677,-3.8022209348131225e-07,4.76074824783533e-07,0.7765873524561415,-0.6300095904069947,-2.9488198068305805e-08,1.133874725057801e-07,0.0847186096562992,-0.04209067667556176,-0.000906566785097564,9.799999854105675
1727705848.9231422,-3.8073496922497615e-07,4.751356402071597e-07,0.7756226166379921,-0.631196923756179,-2.7564868101284898e-08,1.4522208303874626e-07,0.11379259479928545,-0.14197166778735834,-0.011916373420521468,9.799999797660746
1727705848.9331968,-3.815102343761963e-07,4.741641900243472e-07,0.7745352532906145,-0.6325307434502084,4.383919852419599e-09,1.5007017382102058e-07,0.11257480336171657,-0.008839512996863452,0.0930036977576738,9.800000379137208
1727705848.9623475,-3.821752300924781e-07,4.731173314271686e-07,0.7734771800388885,-0.633824149081367,-2.6867535153194035e-08,1.4572028624457935e-07,0.11126381163640561,-0.054335081841776545,-0.0011863233946216498,9.799999856068144
1727705849.003225,-3.830688492372257e-07,4.7175777450401045e-07,0.7720617878420598,-0.6355474771830606,-1.5560578214860406e-08,1.456876651253087e-07,0.11229773211917957,-0.07014692954486318,0.02500765158888462,9.800000043291655
1727705849.031728,-3.8373071234562925e-07,4.707186411698106e-07,0.770986713804705,-0.6368512284170087,-2.520836851504409e-08,1.4655808415594464e-07,0.11269856423877611,-0.056405241967762865,-0.0015924908398280897,9.799999873568238
1727705849.0631034,-3.843808597191222e-07,4.696911366314093e-07,0.7699403385430273,-0.6381158790406958,-2.453044037101592e-08,1.4011757234891812e-07,0.10718831202540637,-0.037144183231263256,0.0009503039281572907,9.79999987096452
1727705849.3377016,-3.8478600622135296e-07,4.679006978013516e-07,0.7686255311636625,-0.6396989861200427,-3.830950392745427e-08,1.28530862152727e-07,0.09803270783454908,-0.022942337058088333,-0.04104475062988967,9.800001836842524
1727705849.3444602,-3.8519273558260445e-07,4.6676188157958936e-07,0.7676382134402576,-0.6408834318859264,-2.2174203890832567e-08,1.3325359522306266e-07,0.10336748296154129,-0.05507222115224348,-0.0046725809338931945,9.800000012093642
1727705849.3706834,-3.8580327495612226e-07,4.658375160966016e-07,0.7666426021601036,-0.642074077153734,-2.0554166694195388e-08,1.3328858093003678e-07,0.10348268978169292,-0.05108812730100448,-0.001388207667688121,9.799999892007875
1727705849.4130793,-3.8616887116029146e-07,4.6408214783404917e-07,0.7652964627700011,-0.6436779661223146,-1.6010854596363017e-07,1.3571471522589026e-07,0.10833173627039017,-0.11957051555507732,-0.3999648934837981,9.799997603458765
1727705849.4716873,-3.86766666056829e-07,4.630732915034128e-07,0.7642336593434083,-0.6449394653192029,-1.786970753162467e-08,1.4065327598085875e-07,0.11016359800607284,-0.05519759881497713,-0.0028565945006611346,9.79999994897141
1727705849.501267,-3.8298669506023515e-07,4.5688291191731696e-07,0.7631891584609495,-0.646175137565128,-7.040785219854539e-07,1.3610173710476808e-07,0.10555025229698879,-0.02190339809236968,-1.9208464725185734,9.800002326396141
1727705849.7381523,-3.813344322888064e-07,4.533438496819705e-07,0.7622084443095121,-0.647331667248654,6.34389302680387e-07,1.2371434843791718e-07,0.09893958272999277,-0.008934778469986223,1.7316325967465154,9.800023959732114
1727705849.7510607,-3.8715433804240266e-07,4.582406036981117e-07,0.7609904867240344,-0.6487630377226783,2.28977465625548e-08,1.1665348025834947e-07,0.09171339416985556,-0.03358254517390427,0.09275152551281962,9.799995736356513
1727705849.7804723,-3.877620034991725e-07,4.575431629445145e-07,0.7600995427110364,-0.6498066521436309,-1.046227032788362e-08,1.1572010498435982e-07,0.0914515773690059,-0.04287752099895852,-0.0007763120437706059,9.799999898150853
1727705850.0881264,-3.862269793081641e-07,4.543453473260946e-07,0.7592080372706057,-0.6508480284546916,-6.640200730119625e-07,1.1606761795458487e-07,0.0912775618303355,-0.04381469188258877,-1.813069420271795,9.799989184242076
1727705850.091628,-3.857873020984007e-07,4.5181500630844135e-07,0.757841277796342,-0.6524389608750035,-2.445572401714759e-08,1.3340147514928293e-07,0.10766201298138939,-0.058873847967348916,-0.07291213323350121,9.800003062962586
1727705850.1214352,-3.8657568571762275e-07,4.5112277117700297e-07,0.756783904387618,-0.6536651452077582,9.409556654436133e-10,1.3410714121187574e-07,0.10797505595331373,-0.04780328997559457,-0.0017369572253287786,9.799999926067592
1727705850.153059,-3.873754198683066e-07,4.504455542490188e-07,0.755724160013161,-0.6548900625082421,9.794633244061787e-10,1.3395589560196623e-07,0.10798181057959759,-0.04756819842825836,-0.001506807832914594,9.799999919661694
1727705850.1919885,-3.881936322452654e-07,4.492207286229484e-07,0.7542668710383965,-0.6565679608795987,1.5886528951105987e-09,1.3781634359541527e-07,0.11143182163969821,-0.049554159832421264,-0.0022682062858962776,9.799999948186498
1727705850.2380698,-3.8909912481437343e-07,4.486134495774641e-07,0.7531471970583005,-0.6578520347029966,4.412173438543448e-09,1.4159083352882227e-07,0.11503477812765239,-0.06102926528866613,0.004662428531933405,9.79999957342867
1727705850.4824793,-3.883257574275064e-07,4.4604566578796044e-07,0.7520064491390948,-0.6591557482513978,-4.911381391587864e-07,1.4313473931468764e-07,0.1159017881333774,-0.06150320595842957,-1.368516408233969,9.799991830283743
1727705850.485532,-3.889570069343197e-07,4.450870669810963e-07,0.7508573190468114,-0.6604644475166588,5.6928417867022785e-09,1.4237211595676757e-07,0.11613196898523585,-0.0492918186139495,-0.005601109856849941,9.800000101074932
1727705850.5135207,-3.899627523617252e-07,4.440084770323983e-07,0.7493296711151186,-0.6621971337797823,6.378147977428359e-09,1.4101454935712262e-07,0.11518428935079963,-0.04779158918633148,-0.0042882945227507305,9.800000051537621
1727705850.5435264,-3.9084962794223924e-07,4.4336252227689746e-07,0.7481846142810069,-0.6634906050222802,7.127336538924891e-09,1.4083050091946836e-07,0.11516386496436123,-0.04849405414239336,-0.001727417840539024,9.799999933906555
1727705850.6135588,-3.915205622210318e-07,4.4249065450785145e-07,0.7470547226907741,-0.664762545052789,6.432636217128475e-09,1.3833156908799933e-07,0.1132138620319852,-0.04599493082588185,-0.00441654103142889,9.800000068644072
1727705850.653788,-3.926152387379661e-07,4.4157748308404705e-07,0.7455485721431743,-0.6664512934753185,5.016135572611803e-09,1.3795353998944996e-07,0.1130949956386614,-0.047173067351383706,-0.008179316795050528,9.800000233032096
1727705850.8966882,-3.913506673382932e-07,4.3856209240176286e-07,0.7444333224371134,-0.6676968087724362,-6.316889523780593e-07,1.3589726930106406e-07,0.10819131935681384,0.017844022814166062,-1.7631218074643011,9.799989422593914
1727705850.9003887,-3.907120598549549e-07,4.365528279254054e-07,0.7436248275530358,-0.6685971252154577,5.528685692258218e-10,9.29455821482956e-08,0.07553273837090076,0.00791635442054695,-0.04099328754946818,9.800001980344215
1727705850.9370153,-3.9161381117647244e-07,4.3617028424345785e-07,0.7426268146826472,-0.6697054681828135,1.6469824413277782e-08,8.970070193263427e-08,0.07447771575818914,-0.028822218352351218,-0.0006939273677293232,9.799999941650867
1727705851.2157853,-3.9019402234035563e-07,4.3356175517302124e-07,0.7418938703822553,-0.670517326464348,-6.09705937125511e-07,8.787281741171316e-08,0.06980795583697758,0.033651786218163185,-1.726148193293224,9.799989625196204
1727705851.2175133,-3.8994888874216154e-07,4.324420219817815e-07,0.7413271028175386,-0.6711438941298769,1.95485824189602e-08,6.578785803351942e-08,0.0547199804502779,-0.00829843318091976,-0.011415416651577585,9.80000051096368
1727705851.2304928,-3.9034391784423097e-07,4.3213503164479285e-07,0.7407831367790166,-0.6717442551027151,-3.915926175050579e-08,6.422835830392343e-08,0.05313380954511127,-0.0021984762341308766,-0.17147861959099114,9.799998912047954
1727705851.272661,-3.9110066233186393e-07,4.320135685020641e-07,0.7400748576898735,-0.6725245014235346,2.3209398233284832e-08,6.26519139072851e-08,0.052644662426611435,-0.019036724060972683,-0.0003992227677518898,9.79999994913508
1727705851.3034897,-3.916845297816999e-07,4.319431258796084e-07,0.7395435805562913,-0.6731086780436277,2.2545604634083585e-08,6.264057067606334e-08,0.05264178455763623,-0.019137398153338897,-0.0003459877306402525,9.799999947747846
1727705851.33645,-3.925707501252365e-07,4.322040771945485e-07,0.7390194088696238,-0.6736841346756287,1.1368821374446492e-07,6.139756347322776e-08,0.05039649749279668,0.012623372611174837,0.2585071938107301,9.800001460246458
1727705851.617499,-3.91715206362017e-07,4.3037126740275967e-07,0.7383224814101905,-0.6744478582099288,-4.622149279742819e-07,6.374511704708542e-08,0.05786808525834589,-0.13647959673062368,-1.3530386527545408,9.799992002651285
1727705851.6201022,-3.9205220333700716e-07,4.299284098503555e-07,0.7376934540033262,-0.6751358144257373,2.3467733725697744e-08,7.411170552326118e-08,0.06265543697207394,-0.02569608753862322,-0.005534473062348374,9.800000156051892
1727705851.6443992,-3.926474641213034e-07,4.2974766781857296e-07,0.7370785757594098,-0.675807053200942,2.209081642630135e-08,7.078222020428824e-08,0.05928922513804386,-0.010533626507969565,-0.005761849249143579,9.800000254860626
1727705851.6846077,-3.935900040992826e-07,4.2972146085437647e-07,0.7362762527228364,-0.6766810767829098,5.2060211805227916e-08,7.050016430012193e-08,0.06017715246988955,-0.03691691225202634,0.07623419489807365,9.800000425880855
1727705851.7511914,-3.9423889670678185e-07,4.2961991866928517e-07,0.7356611407774476,-0.6773497515683344,2.2649194095684182e-08,7.187339883172747e-08,0.060617823119187376,-0.021604550434186687,-0.00029636649089774856,9.799999946885153
1727705851.7786021,-3.9506047496120506e-07,4.297033167870383e-07,0.7350426455375845,-0.678020876699802,7.93177827537731e-08,7.218185582612535e-08,0.06128009798005961,-0.03018694658031054,0.15743391244278365,9.80000090481959
1727705851.9927363,-3.9571196675499813e-07,4.295901006505925e-07,0.7344168663710292,-0.678698656540159,2.0764192964347535e-08,7.302632956051194e-08,0.061525286289684684,-0.02188271241873212,-6.375493855902096e-05,9.799999939415864
1727705851.9969957,-3.9507046749061435e-07,4.2782987637229476e-07,0.7336099322776375,-0.6795707963584523,2.3013838417201762e-08,6.996777422396703e-08,0.05920113742521165,-0.019674704268000956,-0.003293669182897292,9.80000009135428
1727705852.0247378,-3.9570007033489503e-07,4.2772661967697287e-07,0.7330062953787856,-0.6802218542025307,2.3362119533950114e-08,6.99380922044328e-08,0.059187672532397116,-0.020142220239485135,-0.00045163425447430986,9.799999961655404
1727705852.3415,-3.9632290189844994e-07,4.2761589108112806e-07,0.7324020979552723,-0.6808723572817269,2.2672974280515143e-08,6.994938088036445e-08,0.05918738311198127,-0.020152368045668285,-0.00044499492190658454,9.799999962470924
1727705852.3452485,-3.9365176418838074e-07,4.2377986373435976e-07,0.7316929138279734,-0.681634418037701,1.0636572423425752e-08,5.778781427884153e-08,0.049230260786787314,-0.00898570148295722,-0.057918040759629724,9.800002594954154
1727705852.3638115,-3.942774305096666e-07,4.238150481570161e-07,0.7311909844491105,-0.6821728111409936,3.0988629082896955e-08,5.725632552496315e-08,0.04905248504307348,-0.015155061304147928,-0.0004454473818633117,9.799999970182583
1727705852.395453,-3.9490496954069427e-07,4.238527723055418e-07,0.7306888873999511,-0.6827105900964814,3.012718740843475e-08,5.7275901137785216e-08,0.04904866826658256,-0.015289249358274894,-0.00030199955863933277,9.799999964030109
1727705852.439507,-3.9589814028696944e-07,4.2399121640555884e-07,0.7299318964057138,-0.6835198801858084,2.868453832935718e-08,6.55686094055259e-08,0.05603812324184952,-0.019018359053797163,-0.0003551225095502641,9.799999954592172
1727705852.5164785,-3.9500419743285264e-07,4.2233073353644027e-07,0.7294052810025686,-0.6840818197008521,-2.4197341045413504e-08,5.725313648128434e-08,0.04811563101964761,0.008922694021265503,-0.1518299639953877,9.800006931329726
1727705852.7618904,-3.956033577374395e-07,4.223560725078206e-07,0.7289173254014971,-0.6846017329288561,3.120681798951942e-08,5.5269193561697275e-08,0.04746620905871567,-0.013738706977373873,-0.0006414817176750012,9.799999985886897
1727705852.7638752,-3.9366521410578436e-07,4.196705494032612e-07,0.7284129837867893,-0.6851383254865367,2.3826834936419876e-08,5.7188579459334484e-08,0.04960135424286321,-0.017650385533692886,-0.03974667285614819,9.80000171918286
1727705852.7938132,-3.944051482920473e-07,4.1958716161695284e-07,0.7276955285018227,-0.6859002972722211,3.612064226431465e-08,6.197467527202517e-08,0.05363463786344752,-0.017971974258014483,-0.003568901154719002,9.80000009285808
1727705852.8252578,-3.951201285325219e-07,4.196612052833715e-07,0.7271426893001881,-0.6864863504811716,3.6028865202691005e-08,6.227229074169927e-08,0.05371978913683442,-0.014956431107458212,-0.0003863353712345846,9.799999968820368
1727705852.9049783,-3.9538359111833695e-07,4.1922501424479585e-07,0.7265484090172284,-0.6871152809785285,3.398096034328524e-08,6.729383165194317e-08,0.05815886601427979,-0.01939162240304554,-0.0073718540691510475,9.800000260476146
1727705852.9463503,-3.963627945048775e-07,4.192700202982037e-07,0.7257474646328177,-0.6879612035418159,3.4906416026098913e-08,6.76417871368592e-08,0.058256021883662815,-0.01594330921702196,-0.00044276841501861194,9.79999997053868
1727705853.1531122,-3.970860718090363e-07,4.192903356647953e-07,0.7251460140662048,-0.688595133793118,3.3872622420868086e-08,6.769087369093519e-08,0.05825659349442517,-0.01592308421446832,-0.00043722966572065587,9.799999971306693
1727705853.1573591,-3.9779907412603327e-07,4.1929880768632694e-07,0.7245440090283493,-0.689228539006325,3.2868055276591576e-08,6.773722086998081e-08,0.05825660577629592,-0.015922650279304854,-0.00043714852489904247,9.799999972185915
1727705853.1932707,-3.9873425823703424e-07,4.192923049693108e-07,0.7237404750593776,-0.6900722605354398,3.157624842064901e-08,6.779637582194818e-08,0.05825660604570846,-0.015922640441509057,-0.00043713497738755093,9.799999973318263
1727705853.4626446,-3.994243914143106e-07,4.192745122463433e-07,0.7231371797560854,-0.6907044369729207,3.0640297911495715e-08,6.78394970467031e-08,0.05825660604711465,-0.015922640502416745,-0.0004371261217478523,9.799999974120587
1727705853.4649124,-3.929868516045557e-07,4.11803531825726e-07,0.7225607117354894,-0.6913074698395634,-6.499459458055256e-07,6.388388490704627e-08,0.054318896552453665,0.002418452676204611,-1.9201992260223564,9.800002295967241
1727705853.4840522,-3.8671266226123176e-07,4.0458163049980166e-07,0.7220232059312388,-0.6918688387956654,-6.305842536673999e-07,5.8260335160023103e-08,0.05058319115353708,0.005433529158890032,-1.920064570030677,9.800002255872773
1727705853.5257769,-3.7859683007290307e-07,3.953237610277748e-07,0.7213637525525111,-0.6925563778516951,-6.056599995637102e-07,5.1432022211143483e-08,0.04590685110943093,0.008776386149338936,-1.9198951971761633,9.800002204265065
1727705853.5565045,-3.7269380723624784e-07,3.8864722584482147e-07,0.7209096041451019,-0.693029106640596,-5.876128360695165e-07,4.677730470510247e-08,0.0426204871159428,0.010821749314673928,-1.9197743037713761,9.800002166923912
1727705853.6009848,-3.7104740326356323e-07,3.865658085598771e-07,0.720730814943855,-0.6932150405105759,2.877755090383866e-08,9.740471943682177e-09,0.0038681187553076413,0.1408207505184774,-0.2250685173193216,9.800003746551857
1727705853.8486392,-3.725872484923188e-07,3.8817617851835513e-07,0.7207256967052379,-0.6932203618680425,1.1327832870948735e-07,-1.0855817499894994e-09,2.2935547008800953e-05,0.00083597844192123,3.423697060365522e-05,9.799999964724545
1727705853.8510768,-3.737299596407695e-07,3.893884717424222e-07,0.7207256668217827,-0.6932203929371994,1.0994566637920637e-07,-1.1138870794238919e-09,4.902143722215719e-07,1.7879993194171826e-05,1.2909395256511041e-05,9.79999996198574
1727705853.881162,-3.748386800321383e-07,3.905648361380217e-07,0.7207256661830573,-0.6932203936012664,1.0668039818285452e-07,-1.0822143650477825e-09,1.0477825120773627e-08,3.9379039954110953e-07,1.0691398746896069e-05,9.799999963119117
1727705853.9207752,-3.762659210424947e-07,3.9207915567748057e-07,0.7207256661691898,-0.6932203936156828,1.024774973831338e-07,-1.039193162724043e-09,6.210826633743559e-11,1.455112958715886e-08,1.067717213566507e-05,9.79999996458387
1727705853.984047,-3.772993238785023e-07,3.9317560676127263e-07,0.7207256661691088,-0.6932203936157657,9.943326378926101e-08,-1.008649318340356e-09,1.297864619511691e-12,1.2610271033307894e-08,1.070563418529517e-05,9.799999965626183
1727705854.0161612,-3.783020401734394e-07,3.9423949978222026e-07,0.7207256661691069,-0.6932203936157666,9.64804435010648e-08,-9.787011094627157e-10,-2.0211344015953605e-15,1.2846680944444204e-08,1.0733540643621193e-05,9.799999966635417
1727705854.0573118,-3.79274970812774e-07,3.9527179153203204e-07,0.7207256661691068,-0.6932203936157654,9.361493415874796e-08,-9.49736871155256e-10,-2.8944275310584643e-14,1.312152843091036e-08,1.076060583870533e-05,9.799999967642915
1727705854.2430127,-3.8694938932452846e-07,4.0329063007286004e-07,0.7207248347478369,-0.6932212580247311,7.019443671519833e-07,-1.427098914095378e-09,0.00011898671610451092,0.0008356026333008436,1.7309109785887995,9.799997911811207
1727705854.2548168,-3.940877038972063e-07,4.1074281952392095e-07,0.7207228230758835,-0.6932233495037544,6.810389110521152e-07,-1.2499967381992704e-09,0.00022983848160056854,0.0008601259139774436,1.7307581588306646,9.799997880808347
1727705854.303773,-4.010141911012744e-07,4.179723268016779e-07,0.7207197103490175,-0.6932265856948164,6.607554042328927e-07,-1.0781637424995661e-09,0.0003333234255301521,0.0008703267410897904,1.7306048684503685,9.79999785075087
1727705854.5560932,-4.0935318612937736e-07,4.266712346461484e-07,0.7207398605776795,-0.6932056357056813,4.672822718434673e-07,-4.586095515842164e-09,-0.007008555284070233,0.10498484500781768,1.2807715593505993,9.79999505615215
1727705854.5859487,-4.0945791965688097e-07,4.2693074525416793e-07,0.7208438633824666,-0.693097485656592,-5.783727515844681e-08,-1.247618208100901e-08,-0.006660631532180155,-0.07556804081432265,-0.1838014704636273,9.799998720279438
1727705854.6171403,-4.094320281237712e-07,4.2699275497591713e-07,0.7208935573027293,-0.6930457986591264,5.007913692449201e-09,-6.268130311569704e-09,-0.004556165249772108,-0.0006462411855353952,-0.0007169146856245051,9.800000010452985
1727705854.6600533,-4.109503491976878e-07,4.2863089190010416e-07,0.7208975559441878,-0.6930416393214363,8.1855037403336e-09,1.2577249219358275e-09,0.0017918688834370016,-0.005328943829439647,0.019903194109008024,9.799999062846696
1727705854.7169375,-4.123702006034053e-07,4.3010070071433837e-07,0.7208715257215572,-0.6930687147776325,4.061915070399764e-07,2.2164001372013495e-09,0.0037016423248771298,-0.0244722222738503,1.1207858543816511,9.80000664549107
1727705854.7455614,-4.125809714829998e-07,4.3027961510314176e-07,0.7208268907440457,-0.6931151373184083,-2.846419702024098e-09,4.6591467427755156e-09,0.004363290857018663,-0.001586021477435358,0.0030816418838854514,9.799999849086268
1727705854.9635577,-4.1686378328968056e-07,4.3469713076069394e-07,0.7207820042179023,-0.6931618154480678,6.140772534416228e-07,4.017826808589673e-09,0.004261353270909281,0.001088495319215354,1.730394587221164,9.799997783590351
1727705854.98505,-4.180821389137365e-07,4.3598342501207975e-07,0.7208065581501156,-0.6931362822183087,-1.896311587428141e-08,-3.4275433450277414e-09,-0.0023724873872247153,0.0021257792073911333,0.0030897710098284075,9.799999864343581
1727705855.0139036,-4.1871017630401307e-07,4.367292523230847e-07,0.7208903177227596,-0.6930491683951526,-1.751464222421384e-08,-1.1113040447146825e-08,-0.008735357982511556,0.007619241140903843,0.012967626461153283,9.799999440660928
1727705855.0983298,-4.184227221882252e-07,4.36562276371688e-07,0.7209823978886567,-0.6929533764506506,-2.132958499344338e-08,-1.1493571201823115e-08,-0.008872727629305825,0.0027705204892473595,4.910055476094485e-05,9.79999999375218
1727705855.1433103,-4.1804623922677224e-07,4.363469407162481e-07,0.7211053921089524,-0.692825384545795,-2.0501892804486495e-08,-1.1464662352665836e-08,-0.008875729592312682,0.0026646248874289532,-8.49151503226175e-07,9.799999995556238
1727705855.1736054,-4.129973442171645e-07,4.3121199961596575e-07,0.7211960741759464,-0.6927309886188479,-7.063809901340417e-07,-1.0400668162582118e-08,-0.00857784635947023,-0.0009842924118313892,-1.9224610405504297,9.800002428085321
1727705855.3690047,-4.0575009891818215e-07,4.2377425663217025e-07,0.7212822065560954,-0.6926413058035348,-6.853371235438145e-07,-9.663282810560533e-09,-0.008147851816947951,-0.0014992048585332123,-1.922270382723207,9.800002384516372
1727705855.3862963,-3.9642697417662653e-07,4.141958779577899e-07,0.7213903335907276,-0.6925286900927137,-6.582475524711571e-07,-8.759182056537955e-09,-0.007605307217383354,-0.0021054022329356176,-1.92201693713988,9.800002327764528
1727705855.4237704,-3.8968082330288014e-07,4.072579913327886e-07,0.721466655759124,-0.6924491783715452,-6.3863334707721e-07,-8.137086173696665e-09,-0.007220882531036026,-0.0025045235065150897,-1.9218274350118525,9.800002286683743
1727705855.665831,-3.8596902525150067e-07,4.035199817133572e-07,0.7217204168852972,-0.692184686229478,-1.5428591393341182e-07,-3.5523497446667693e-08,-0.043280417940362706,0.2856793953524578,-0.5827794715729098,9.800002871166443
1727705855.674678,-3.8447149172871685e-07,4.027020510904432e-07,0.7225802450448732,-0.6912870528735374,-9.559133880603336e-08,-1.0193116685370207e-07,-0.10136200771126153,0.2586858148231381,-0.43624433482879726,9.800000573427296
1727705855.7152646,-3.822550268183683e-07,4.0242705186615745e-07,0.7245898861624983,-0.6891803079533757,-8.091710369714357e-08,-1.8064582015325947e-07,-0.17151291620298048,0.24126221862445296,-0.41208859773352047,9.800000522962648
1727705855.74666,-3.818183135532825e-07,4.041292062674427e-07,0.7264422936880678,-0.687227468849223,7.724037912246923e-08,-2.0165782249209984e-07,-0.18038542176457212,0.007712942011254029,-0.005891556472290516,9.80000008550349
1727705855.7859797,-3.8149453415194023e-07,4.060133858186818e-07,0.7283008605917215,-0.6852575110577391,7.575858366705968e-08,-2.0257053829068917e-07,-0.1805749400985016,0.0007984660083481544,-0.004539826784295956,9.7999999837955
1727705855.8287656,-3.8091372509265164e-07,4.0859269078271387e-07,0.7310293135171124,-0.6823460579342325,7.303129744714863e-08,-2.2621184087102755e-07,-0.20137978373145834,0.005331265908929192,-0.005027971130440054,9.79999998378016
1727705856.047629,-3.803531304453441e-07,4.105663428803201e-07,0.7333209160951124,-0.6798826619477154,6.970992290930927e-08,-2.6320680575945285e-07,-0.24694590326888735,0.31574034412109014,0.03034626196984766,9.79999994454867
1727705856.063555,-3.793911790673632e-07,4.1284975662044704e-07,0.7362796998749708,-0.6766773260215748,6.7646881301503e-08,-3.381869350434328e-07,-0.3127387417805715,0.3088976652885704,0.020777840638673276,9.799999956703841
1727705856.1049733,-3.7754897819549535e-07,4.165055723426018e-07,0.741001962352218,-0.6715028605969195,6.976161978842596e-08,-4.043961913496486e-07,-0.3591616876143945,0.036616706655090196,-0.011295971308202027,9.799999945433497
1727705856.1818862,-3.759179701750946e-07,4.1935077213233466e-07,0.7447848427835114,-0.6673046815058492,6.770322407326852e-08,-4.3521059547889547e-07,-0.3891376923927353,0.11739201867671595,-0.005223496477444942,9.799999973518712
1727705856.2226999,-3.740827790296592e-07,4.223207057797571e-07,0.7487090016127789,-0.6628988089472463,6.590557271726513e-08,-4.4661720409146403e-07,-0.394083542537635,0.009956714919357578,-0.020794863886831393,9.800000004825284
1727705856.2530737,-3.7220669954274114e-07,4.251831367183508e-07,0.7522507936396564,-0.6588768803564045,5.793462520402775e-08,-3.8799591429543433e-07,-0.3202751882973858,-0.5160440821770464,-0.09915496254235452,9.800000096890033
1727705856.427174,-3.7062279742152674e-07,4.2806465353152474e-07,0.7552488725962946,-0.6554381286145209,5.56431275943296e-08,-2.2092006334485052e-07,-0.17345682489434378,-0.5030501820291802,-0.07879162842121211,9.800000076134154
1727705856.446487,-3.702282323865169e-07,4.2949252427466e-07,0.7562744698349462,-0.654254481280449,5.414722148480399e-08,-1.0252701410309192e-07,-0.07073134566989805,-0.46763690140212816,-0.06697192734968065,9.800000063216286
1727705856.4940295,-3.705258469726216e-07,4.304118571809975e-07,0.7564439471513628,-0.654058525529439,5.502083955052941e-08,-9.348978529981523e-09,-0.003069849009871813,-0.10548397912817237,-0.00868283031349408,9.799999749065385
1727705856.756271,-3.711896736452475e-07,4.312049693422893e-07,0.7564483364172622,-0.6540534491394666,5.0867145189532534e-08,3.849199657409434e-11,-2.0849803921072795e-05,-0.0007599600157040674,-9.597157088965511e-05,9.799999985770345
1727705856.7676923,-3.7167984337824157e-07,4.317698015792252e-07,0.7564483620486729,-0.6540534194953461,4.9357251493876344e-08,9.42845626755995e-11,-4.4564550639435305e-07,-1.621964014241308e-05,8.843099974254496e-06,9.799999985891334
1727705856.7993279,-3.721555228263783e-07,4.3231780618408496e-07,0.7564483625965196,-0.6540534188617311,4.789224811213224e-08,9.274722238182991e-11,-9.525130089441012e-09,-3.228658291476421e-07,1.1142578106212377e-05,9.799999986310524
1727705856.8379982,-3.727267045828605e-07,4.3306292387777654e-07,0.7567190151525527,-0.6537402634886613,4.6233754312836846e-08,-4.507549730305012e-08,-0.05496660242432911,0.38022746990082407,0.05240765052623388,9.799999924630969
1727705856.9025455,-3.7266281205676533e-07,4.340153993485906e-07,0.757768647752677,-0.6525233148959135,4.4701544301657773e-08,-1.3569462740510594e-07,-0.13260002838421237,0.35396981800186283,0.04561764761011234,9.799999932923233
1727705856.9306858,-3.7210567356422314e-07,4.3539673518425546e-07,0.7594338737061321,-0.6505844998671352,4.458778823554593e-08,-2.032440218252582e-07,-0.17935068423247558,0.06784880537301129,0.006230696670284328,9.799999909152412
1727705857.1564372,-3.713430432480337e-07,4.368981704209023e-07,0.7612729173020463,-0.6484316042437342,4.190004328170119e-08,-2.2012025412997753e-07,-0.20455196213392732,0.3298629480672223,0.03670563318259833,9.799999957185568
1727705857.1661797,-3.698194179917084e-07,4.393234479834891e-07,0.7646141190513847,-0.6444883621501206,4.9548621634081205e-08,-3.1988721237515464e-07,-0.28450481736879957,0.17924856053010577,0.03242544789882203,9.800000123676682
1727705857.1970172,-3.683154192984202e-07,4.4141592339022715e-07,0.7673985765853012,-0.6411703554083914,4.152726644384665e-08,-3.3396846992538214e-07,-0.28927749845314055,0.0054603271227177735,-0.011120444409644983,9.799999998030582
1727705857.2816496,-3.6676939860295027e-07,4.4349774453709416e-07,0.770174358359257,-0.6378334090697785,4.0258505703827305e-08,-3.345733125397109e-07,-0.2893795363615175,0.0017428089537949386,-0.011702196873263876,9.800000002133855
1727705857.3269088,-3.6467315966109944e-07,4.4624337943286134e-07,0.7738529830917217,-0.6333652663035062,3.8645245894916793e-08,-3.349801937785637e-07,-0.28938175222997436,0.001662073450152508,-0.011713817337948318,9.800000002632576
1727705857.358211,-3.6302253747412396e-07,4.4828828650199866e-07,0.7768021167039808,-0.6297447669364804,3.480441815017499e-08,-3.7160033776292916e-07,-0.33323538633638494,0.30920850311107184,0.01763923446276671,9.799999968639728
1727705857.5309904,-3.610114367661353e-07,4.5065053381030497e-07,0.7802823536432378,-0.6254274127287959,3.3643435987875477e-08,-4.354381536924138e-07,-0.38792407022836006,0.3099954723177225,0.008468988671556703,9.799999736003052
1727705857.5425673,-3.576900517205237e-07,4.543090659214616e-07,0.7857493052601616,-0.6185450907434631,5.371613237678404e-08,-5.312701397807826e-07,-0.46292450142448527,0.138006443835811,0.02825888693029498,9.800000225208635
1727705857.5744526,-3.548498530228237e-07,4.572956404621296e-07,0.7900707317420492,-0.6130156921680291,3.863174403774999e-08,-5.44547766392831e-07,-0.4687263246578984,0.012412728640760557,-0.029062855798789283,9.800000009962538
1727705857.84889,-3.539178978571657e-07,4.628347129896067e-07,0.7943409700736884,-0.6074721584254311,6.88135927457807e-07,-5.426490540680476e-07,-0.4615200434114386,-0.10797800629769966,1.7600373857567695,9.800010776009431
1727705857.853625,-3.5681171643186923e-07,4.733403726196934e-07,0.7983930331203031,-0.6021366661021493,6.676029616089637e-07,-5.272423290268914e-07,-0.43926650680062135,-0.08165567352169793,1.7650945252325765,9.799997770767405
1727705857.8997698,-3.557577557172595e-07,4.809986369756603e-07,0.8038701181940737,-0.5948048697466152,2.0150838104033207e-07,-5.633320020887286e-07,-0.47345458723704004,0.211608784170066,0.5476370156213581,9.799998373636289
1727705857.9233496,-3.530123191230049e-07,4.84803819748967e-07,0.8081716539634405,-0.5889470075733785,-2.433190736717776e-08,-5.875663899641946e-07,-0.4651231101203263,-0.44645727841282457,-0.15835391526583248,9.799996683934845
1727705857.9725254,-3.480060298959911e-07,4.847276331331682e-07,0.8117499782489528,-0.5840051136869167,-2.242336583704865e-07,-4.753168687164169e-07,-0.3788631318506251,-0.34221072519508766,-0.6884105146598073,9.800000551430719
1727705858.0208871,-3.4199111978513283e-07,4.833812750129174e-07,0.8153611099259246,-0.5789527272757368,-2.3743916363344504e-07,-3.397848962041421e-07,-0.2700663706418369,-0.34660157059610003,-0.7305026389853012,9.800000653578547
1727705858.2346807,-3.4066138444850926e-07,4.853209962873226e-07,0.8173095864009715,-0.5761987851225662,6.324447989014122e-07,-2.559300303749617e-07,-0.21282016888619903,-0.061738523956724335,1.7098458742698877,9.800015078397127
1727705858.2448614,-3.444663822758708e-07,4.940162416418576e-07,0.819059974072094,-0.573707903791344,6.136477777138549e-07,-2.426473109199185e-07,-0.19816704299668206,-0.04606158081304867,1.7119929993009642,9.799997813022983
1727705858.2895164,-3.4937387960675633e-07,5.051917570965155e-07,0.8211992064747076,-0.5706416242134228,5.89404277352926e-07,-2.2602520989395175e-07,-0.18044786604430457,-0.028064388943709585,1.7144003642278187,9.799997773994841
1727705858.360531,-3.5125541456107915e-07,5.108572945745538e-07,0.8227600769915258,-0.5683888244050144,9.48031630758735e-08,-2.3225080754775608e-07,-0.19456992583116156,0.2825809143318447,0.4297149866677368,9.799992150679982
1727705858.3918827,-3.5044908622469003e-07,5.132229123590433e-07,0.8246935812898876,-0.5655797883401361,9.67062441868151e-08,-2.9561277432014345e-07,-0.2434183289190639,0.27820173908880963,0.43608655145348435,9.799999397702626
1727705858.4218104,-3.490983578881236e-07,5.156421313103273e-07,0.8270227156923162,-0.5621685047461468,8.478122481013255e-08,-3.572893332374245e-07,-0.29128112663914724,0.2876477357506638,0.403879123132522,9.799999826831241
1727705858.6739452,-3.473073497679546e-07,5.198816736716688e-07,0.8304084397476679,-0.5571551159196628,5.667317904257962e-07,-3.824588696027506e-07,-0.2993750228356127,-0.00277559277898648,1.697831615719659,9.80001009161528
1727705858.6776967,-3.460277472110345e-07,5.232479918203613e-07,0.8329632635649609,-0.5533282945510882,-4.137482996492341e-08,-3.9449248004540407e-07,-0.3105750225533585,0.12150212985227728,0.054570216787947004,9.799997546230278
1727705858.6819782,-3.4300112044456225e-07,5.241409538444634e-07,0.8355380711059909,-0.5494325543067935,-6.259686951576404e-08,-3.963239908120004e-07,-0.311404240890176,0.09264355706056072,-0.012946441805906022,9.800000018784779
1727705858.9693675,-3.4051626277364403e-07,5.27697204203966e-07,0.8389349312923879,-0.5442317347022699,5.06330464154033e-07,-3.93992494705905e-07,-0.30811310930335145,0.04203971480401736,1.5514703442701967,9.80000923771865
1727705858.977737,-3.39212788219325e-07,5.314087816619894e-07,0.8416253848071286,-0.5400617665118087,1.9619304357908065e-07,-4.312554584542603e-07,-0.34183643810784514,0.23759317978250827,0.7341303888252101,9.800001027497627
1727705859.009884,-3.3675904834210125e-07,5.340282071481167e-07,0.8445885421064017,-0.5354159080025397,-1.7774310448728347e-08,-4.794552202450454e-07,-0.37672027607592523,0.22084682869900937,0.14126932395932285,9.799997720050271
1727705859.054669,-3.324879278781478e-07,5.365434111617753e-07,0.8486550607068157,-0.528946677781714,1.6185253729662334e-07,-4.926311656040239e-07,-0.38754302907637384,0.22221786969868093,0.6317540108476054,9.800003757383642
1727705859.117219,-3.289634010127583e-07,5.380782591485072e-07,0.8517273162310249,-0.5239852848940493,-6.500077557853834e-08,-4.995585210293838e-07,-0.3892605823851071,0.13885492429044696,-0.006838286849862168,9.799999725402001
1727705859.1508281,-3.215880331521283e-07,5.332486522680305e-07,0.854734744950077,-0.5190650400236361,-7.599419158571774e-07,-4.855629846874554e-07,-0.3795410351178967,0.06467865608178423,-1.966191002053096,9.800002599800127
1727705859.381018,-3.127639604840501e-07,5.255370134734982e-07,0.8575986776710361,-0.5143194610905912,-7.373929740087459e-07,-4.5638475091160485e-07,-0.36445549196810917,0.035526538024359705,-1.9637540236158353,9.80000254889918
1727705859.3861651,-3.016356826015198e-07,5.154397913776867e-07,0.8611929960294135,-0.5082780967044769,-7.083170352809931e-07,-4.182801310429076e-07,-0.34360568614105264,-0.0005489317505339389,-1.9604992988607726,9.800002482925468
1727705859.4154844,-2.937507770029838e-07,5.080062303916678e-07,0.8637201225102487,-0.5039717749740917,-6.872326710329567e-07,-3.903428143800975e-07,-0.3274586956713575,-0.02538576678577082,-1.9580734459194815,9.800002435188548
1727705859.447804,-2.878488551179778e-07,5.034230508543262e-07,0.8660003187210168,-0.5000434460871985,-2.6029558315346843e-07,-3.417433628007461e-07,-0.2809485387371455,-0.3161964121396317,-0.8561915844142639,9.800004663048613
1727705859.5510244,-2.8332771626976677e-07,5.011836811924614e-07,0.8681572860433139,-0.49628915632882425,-2.0045516879229752e-07,-2.196788474621908e-07,-0.17825982991104228,-0.34145736377843156,-0.7061112835001727,9.800000927320768
1727705859.5786839,-2.818063085846802e-07,5.013732664829762e-07,0.8694753130682821,-0.49397639616127575,3.750521667300315e-08,-2.1337554901979e-07,-0.2012767784425231,0.3383702032441268,0.03713571921721759,9.799999945166482
1727705859.8021865,-2.8044829908524727e-07,5.02781656566792e-07,0.8712972281495589,-0.49075568281841014,3.605424309443866e-08,-2.9317355470149744e-07,-0.26886158856937725,0.3189157051427612,0.02664529475328259,9.799999957599706
1727705859.8098073,-2.7611555936761505e-07,5.016252639524084e-07,0.8742026018569493,-0.4855613358847799,-9.755662546341826e-08,-3.5486843768936983e-07,-0.31979933560726226,0.2199268324047283,-0.37741091867706333,9.800000582240134
1727705859.8406758,-2.7290832262711993e-07,5.01667200843023e-07,0.8767348195888618,-0.48097407011205906,-1.0130083690034637e-07,-4.048126904754076e-07,-0.36402701561140827,0.21242916031302797,-0.40344653977275297,9.800000473556157
1727705860.0844655,-2.701711047276345e-07,5.032543170426624e-07,0.8794509087085842,-0.47598959985625633,4.345072060338107e-08,-4.324598100252022e-07,-0.3809839504111514,0.0265697090570855,-0.034433546646104374,9.800000408169035
1727705860.0866852,-2.6748794109227997e-07,5.054553260887528e-07,0.8824662812659854,-0.47037566096499495,4.335043491987067e-08,-4.952367737255476e-07,-0.4467584948301601,0.3108881808741169,-0.0029968894515066463,9.799999991456367
1727705860.1257205,-2.6324320951842457e-07,5.089225813108801e-07,0.8869782239808836,-0.46181124952017916,5.046106235011497e-08,-5.62174302521871e-07,-0.49275237204373973,0.03825675730316328,-0.026511441545285307,9.799999953630392
1727705860.1564977,-2.5982161687147725e-07,5.115212721607021e-07,0.8903757397828375,-0.4552263634784737,4.804123927835425e-08,-5.661095765689166e-07,-0.4942001958649485,0.0068443562400373964,-0.03387168213004671,9.800000027110318
1727705860.1858752,-2.563587256239121e-07,5.140794492744033e-07,0.893726336702839,-0.44861256679165107,4.6574012233448575e-08,-5.67048697846108e-07,-0.4942872605282417,0.004953666281147694,-0.034180797515572056,9.800000028778266
1727705860.2478914,-2.516782617767981e-07,5.173826984939664e-07,0.8981657034719216,-0.4396571040099968,3.624352587607368e-08,-5.788579863449258e-07,-0.5162159033670103,0.31234563025756373,-0.01864783339971874,9.79999987116945
1727705860.50989,-2.47856104753098e-07,5.200474694116826e-07,0.9017579629117711,-0.4322413403700306,4.883589012997986e-08,-6.384974517265432e-07,-0.5576866635637612,0.08309026829092962,-0.023496133031010103,9.799999803480862
1727705860.5118525,-2.435754196739193e-07,5.226507056202313e-07,0.9056212860044928,-0.42408735696226113,3.357622997812595e-08,-7.045194771144312e-07,-0.6234479980623188,0.3143699545092152,-0.04733613978389602,9.8000000449429
1727705860.540019,-2.3726027709131835e-07,5.268093181643561e-07,0.9111381163713457,-0.41210111974482966,4.9199846681704955e-08,-7.706209280088121e-07,-0.6679501588995086,0.04013099425923768,-0.05178495249738165,9.799999907408973
1727705860.569354,-2.3224635495595957e-07,5.298173033057846e-07,0.9152282370124406,-0.4029358189274876,4.5625871594158285e-08,-7.745639931255412e-07,-0.6693093364102486,0.010719059732914742,-0.06236925116891044,9.800000060117435
1727705860.6560688,-2.2718039629874845e-07,5.3275797039957e-07,0.9192277851028523,-0.3937261473341192,4.420453476374783e-08,-7.75661694083223e-07,-0.6693910784159814,0.008945410409949346,-0.06271201221137737,9.800000062850259
1727705860.6874194,-2.220706507815206e-07,5.356314605385284e-07,0.9231347569086045,-0.3844765540146178,4.2845658672296114e-08,-7.765631281895681e-07,-0.669395998940354,0.008838753200551431,-0.06272837446595596,9.800000063255746
1727705860.9070563,-2.148989496284613e-07,5.395021546362998e-07,0.9285255626620588,-0.3712684735912404,4.797615867558131e-08,-8.418130887595958e-07,-0.7265147357084903,0.06455925171263475,-0.054751400734441784,9.799999793300882
1727705860.9092143,-2.089781746168634e-07,5.422365845482366e-07,0.9327535653342299,-0.3605146132349491,2.4475335294772955e-08,-9.073323518992435e-07,-0.7922610954937528,0.3187348390603409,-0.103612067178833,9.800000112888233
1727705860.9255462,-2.0269942972418395e-07,5.45674936982371e-07,0.9371610603745819,-0.3488970434343782,6.476559262046883e-08,-9.731532037010896e-07,-0.8390619544272996,0.11334061341404897,-0.03628512097930116,9.799999185760198
1727705861.2658749,-1.9378221099752985e-07,5.499342566639671e-07,0.942909703173493,-0.33304848244802915,4.5826667665252676e-08,-9.848344810926933e-07,-0.8435749046925118,0.016345955320793477,-0.09914756770519015,9.800000102195646
1727705861.2678468,-1.8778273315572425e-07,5.558161835909114e-07,0.9472120640937823,-0.3206077129996284,6.78347649885807e-07,-1.0337769624151158e-06,-0.8798659733548461,-0.10559777843239382,1.6254909815382015,9.800011058622406
1727705861.271589,-1.8354053153780455e-07,5.67731142414325e-07,0.9512926275478022,-0.3082893718129805,6.580772802239884e-07,-1.0282205301277062e-06,-0.8578322982354978,-0.056534805703584046,1.635468126521944,9.799997915189715
1727705861.3127565,-1.7754567421810662e-07,5.830804021940267e-07,0.956338365929537,-0.29226174886709266,6.318712757426454e-07,-1.019866636876997e-06,-0.8297433714716129,0.005291952202049064,1.647784526377271,9.799997863376522
1727705861.338099,-1.7278764766918204e-07,5.940808592047665e-07,0.9598463578864844,-0.2805262362982608,5.891032958338025e-07,-1.0135168312419284e-06,-0.8105703344007579,0.06332183105400589,1.5922550862129892,9.799997438284972
1727705861.405382,-1.6701099374809917e-07,6.016043300336854e-07,0.9630800122957688,-0.26921532258768605,3.091851980507185e-07,-9.790908979831342e-07,-0.7664823086657621,-0.07528415579477198,0.8478208469305321,9.799998879657773
1727705861.4384694,-1.6035705605999622e-07,6.043896948036081e-07,0.9659129850692039,-0.2588669644321362,-2.150369256764146e-08,-8.858695021800163e-07,-0.682923709400122,-0.26267226408938876,-0.052651499883897855,9.800001651347632
1727705861.6565337,-1.5352577111910576e-07,6.113389678467421e-07,0.9690975027333044,-0.24667798887552878,2.967486389287263e-07,-7.805947021689105e-07,-0.6032353800278374,-0.08792692474190889,0.901151621607424,9.799998805104293
1727705861.6709576,-1.4872194098356925e-07,6.155420628638483e-07,0.9711504860782962,-0.23846746819951864,9.851831260732281e-08,-7.104560535665945e-07,-0.5439679829304057,-0.10690261380241024,0.3866989528112107,9.799997776092294
1727705861.7024145,-1.4345682721820852e-07,6.159835042535896e-07,0.9730173922080615,-0.23073178034293979,-7.532328468072731e-08,-6.7726530677701e-07,-0.5270842951878657,0.11940347489133499,-0.056872895467783485,9.799999782527046
1727705861.7443373,-1.3685832581497676e-07,6.171833887752104e-07,0.9753026274084491,-0.220872780056248,-3.239207503858428e-08,-6.267671276010581e-07,-0.483649114623311,-0.018057568696939703,0.0512353531452818,9.799997616858493
1727705861.7808273,-1.32455170835641e-07,6.187796663589627e-07,0.976832830001851,-0.21400379022385085,2.477711054104057e-07,-5.944081102487311e-07,-0.4549775125928245,-0.13508568255458903,0.8144056856864459,9.800005228179131
1727705861.8150876,-1.2839476143571477e-07,6.200590849926639e-07,0.9781752138868784,-0.20778173869943045,-6.138803271649911e-08,-5.375329525280804e-07,-0.41733931306803074,0.06278043171420081,0.004930774082125306,9.799999160566147
1727705862.0688422,-1.2378100782907422e-07,6.232001191742024e-07,0.9797284316978054,-0.2003302276805864,1.3507104341290612e-07,-4.5846174468611137e-07,-0.3453161353329499,-0.21782930424169425,0.5303495259932588,9.799998949782259
1727705862.0990767,-1.2108673024836401e-07,6.255700345551119e-07,0.9806131087849693,-0.19595389988125161,9.784133478938476e-08,-3.6698055159924003e-07,-0.2757821134387558,-0.18602265723129838,0.4547084588666233,9.799998815400778
1727705862.131821,-1.1832607989471814e-07,6.250491940155209e-07,0.9813914650927268,-0.19201768731746338,-8.371536464703124e-08,-3.4089647793507384e-07,-0.26650900838975106,0.08781057843556876,-0.008636146491683488,9.799999938681193
1727705862.3895202,-1.1429261812562136e-07,6.175265388784315e-07,0.9821363553799526,-0.18817061258493167,-7.710906315521012e-07,-3.2696901913552803e-07,-0.2560941802355656,0.019264085072249457,-1.9480932305970453,9.800002600611785
1727705862.3979604,-1.0847681880610905e-07,6.033412176323636e-07,0.9830403367133819,-0.18338946642068998,-7.405556813752872e-07,-2.9202082351994526e-07,-0.23565803003094443,-0.005576376863503244,-1.9453382582599161,9.800002533377997
1727705862.4293568,-1.0445998893882732e-07,5.930266957430608e-07,0.9836552809937926,-0.18006190094703517,-7.184305919772458e-07,-2.6730042794775827e-07,-0.22058846280388136,-0.021824435704606283,-1.9433876297678692,9.800002484425836
1727705862.4653761,-1.0072029263190714e-07,5.829847457826659e-07,0.9842196409491057,-0.17695111858833573,-6.969531501708868e-07,-2.4397146657700255e-07,-0.205948992137703,-0.03448356223305968,-1.9413293185485923,9.800002436865332
1727705862.5227075,-9.627977998296864e-08,5.708656922076152e-07,0.9848934600524107,-0.173161405473781,-4.9591311446532e-07,-2.1187332416707872e-07,-0.17988850743245352,-0.15666661975563267,-1.472626958360142,9.800005249736815
1727705862.5546472,-9.649949396239678e-08,5.806869831732861e-07,0.985335625346611,-0.1706273876681484,6.403693440387469e-07,-1.9470716312728015e-07,-0.1674039626533454,-0.04346809799388822,1.7161597656749188,9.799997851180557
1727705862.7820902,-9.671884459437797e-08,5.902119703804795e-07,0.9857414928670991,-0.1682667799649848,6.213655546337949e-07,-1.8459559924871007e-07,-0.15592958670749402,-0.03147085748052344,1.7175456294278615,9.799997820926905
1727705862.7944632,-9.602515581173126e-08,5.971128619800872e-07,0.9862996041162024,-0.16496390793096527,8.563847389496516e-08,-2.1436912145849623e-07,-0.19018450410594606,0.3003999127722923,0.3268161748548773,9.799997439783104
1727705862.8246493,-9.452390511661458e-08,5.99281633315322e-07,0.9868468602439908,-0.16165789317633034,1.253829993912525e-07,-2.782103335631517e-07,-0.23953207733432236,0.2691488756398122,0.4364224169081995,9.799999425914224
1727705862.8592246,-9.27179703700329e-08,6.024015823510155e-07,0.9874823398562095,-0.1577296055651367,1.4669898328794983e-07,-3.28001738752497e-07,-0.27731181087483464,0.2537255689410238,0.5026928196179996,9.799996631767431
1727705862.892089,-9.034776979611189e-08,6.045151193425161e-07,0.9881994436349937,-0.15317264638020434,1.1007166030653856e-07,-3.849645822766827e-07,-0.3226448318162253,0.2823412649739579,0.40830010858288784,9.79999946315815
1727705862.9405468,-8.66072760404604e-08,6.068755695368756e-07,0.9891925109101507,-0.1466225642897287,-2.6041098227226898e-08,-4.0828543928168476e-07,-0.33174795145161157,0.08541702728889514,0.01400537979340523,9.79999872436642
1727705863.164498,-8.422847846549854e-08,6.118240659013329e-07,0.9899045554248623,-0.14173556769112078,3.578822002772282e-07,-4.059669725611995e-07,-0.3297372690236512,0.13470974416953208,1.0999947012992017,9.799994183560088
1727705863.1947124,-8.131848520903016e-08,6.141733146529485e-07,0.9906476797343444,-0.1364447677141754,1.0729401524551431e-07,-4.523487376618428e-07,-0.3705567927097475,0.30637664102881085,0.43891114864578384,9.799999231088275
1727705863.2438352,-7.652970427109284e-08,6.151720629921515e-07,0.9916960549307237,-0.1286037893471832,-4.2982274395628836e-08,-5.020673167460613e-07,-0.4022814986239184,0.14736373240389966,-0.0017204436850093863,9.799999639946085
1727705863.5120108,-7.343642681576854e-08,6.210637274579942e-07,0.9924455248854571,-0.12268610408044661,5.643861021078119e-07,-4.97257344601451e-07,-0.3923314233730342,0.04754717516892551,1.6830283148492058,9.799997780981661
1727705863.5245109,-7.032944198273885e-08,6.266337096414181e-07,0.9931526973677913,-0.11682345531049232,1.6698792627601824e-07,-5.055494215836858e-07,-0.4018392469454158,0.27685447756102194,0.6496059894338242,9.799996522677624
1727705863.565786,-6.510814049098207e-08,6.274430048883178e-07,0.9940790350616823,-0.1086594314840485,-6.374765099435134e-08,-5.251395814263654e-07,-0.41093026768589136,0.15473587683006904,-0.003073955969240247,9.79999957739924
1727705863.5953627,-6.113742870847198e-08,6.279476664881144e-07,0.9947360900314133,-0.10247005020306155,-1.0925763470655487e-08,-5.327250967808821e-07,-0.4173202146700442,0.16971405054623281,0.1431554070442337,9.799997786244374
1727705863.667772,-5.702841350590736e-08,6.274794624209698e-07,0.9953572303133825,-0.09624959253147536,-6.808063632796146e-08,-5.317349020685253e-07,-0.41666123203211,0.1607256788392688,-0.019572757844926836,9.799999949110816
1727705863.6980407,-5.3188759852500346e-08,6.302629272354625e-07,0.9959499646371668,-0.08990922054398198,-5.018554434902976e-09,-5.47487846063758e-07,-0.4278128458511532,0.18953687108001965,0.1678030611959097,9.799997313661851
1727705863.9185264,-4.796975724910857e-08,6.342190986190325e-07,0.9966796092716156,-0.08142331645035883,2.5004082967795233e-07,-5.467924706926866e-07,-0.42837121226698643,0.27343621859475403,0.8989392290779179,9.799993054868398
1727705863.9261203,-4.373870320553657e-08,6.350214369166278e-07,0.9971961260997122,-0.07483238664723829,-6.408297783335849e-08,-5.710610726759919e-07,-0.442491969617341,0.21191180250672928,0.02578336965434972,9.79999888353751
1727705863.9552102,-3.934448534028998e-08,6.347906903422989e-07,0.9976739061848985,-0.0681672715998079,-7.373965850539376e-08,-5.754648977768578e-07,-0.4457657811528146,0.20210228330594615,-0.0058342732559464585,9.799999570944566
1727705863.9971087,-3.343637680613359e-08,6.336178545083402e-07,0.9982401846551243,-0.059300368795653036,-7.242606648033892e-08,-5.69898906804382e-07,-0.4417862443182483,0.17448744954135234,-0.013251733905102049,9.800000291706235
1727705864.0269835,-2.907941619010796e-08,6.328274308178394e-07,0.998609552052848,-0.052715866192338645,-7.496215742625278e-08,-5.644060416785921e-07,-0.43915488589712304,0.19240670485962896,-0.022236494217210356,9.79999994736451
1727705864.0633805,-2.4822440614285754e-08,6.345022524516923e-07,0.9989400904908802,-0.04602929077955559,-3.877731995032332e-08,-5.762512261428895e-07,-0.44735938410146503,0.20701539340857478,0.08487083180478074,9.799998583936826
1727705864.312755,-1.9159106091814673e-08,6.384669638506654e-07,0.9993059371651882,-0.037251093218809816,3.1813764710594657e-07,-5.600565463726458e-07,-0.42491083618155934,-0.01017444863074716,1.05851362238392,9.799994272827247
1727705864.3428915,-1.5215793611812678e-08,6.401834100564175e-07,0.9995065672282015,-0.03141054070349547,-4.085734919668174e-08,-4.952577824904593e-07,-0.3767626095981294,0.06155124182728305,0.10263437797482765,9.799996812647464
1727705864.3736181,-1.154184633504937e-08,6.390380129601406e-07,0.9996629590560127,-0.025960899271175064,-8.918555436446625e-08,-4.645991320536899e-07,-0.3565837184930323,0.11191726310213465,-0.024808389192108073,9.800000006233098
1727705864.6695054,-8.032118685333994e-09,6.376321796090529e-07,0.9997832336232941,-0.020820320971177142,-1.2709766562189995e-07,-4.3491727127624495e-07,-0.3196124788260044,-0.30388958646870284,-0.19009759475442356,9.799999429380287
1727705864.6745963,-4.1713354591093695e-09,6.362000641029369e-07,0.9998866132129509,-0.01505857619861678,-8.501221070671785e-08,-3.6401462687941347e-07,-0.2842443246744032,0.13454733262664345,-0.011635230754411573,9.800000009629406
1727705864.7059143,-1.4213679541693317e-09,6.350050979203548e-07,0.9999416922620653,-0.010798707129744956,-8.277566942346532e-08,-3.624690239578545e-07,-0.28398790063236395,0.1433922799656703,-0.010815256760574515,9.80000002794845
1727705864.7366076,1.3174384526039938e-09,6.33834456581282e-07,0.9999782095354024,-0.006601549361217263,-8.026840530156791e-08,-3.540810768516344e-07,-0.2714974385672635,-0.03136603643997132,-0.03364015671621039,9.800000043256613
1727705864.7969882,4.7403453262513185e-09,6.323040773340145e-07,0.9999992077659852,-0.001258756132908323,-7.755041791705071e-08,-3.3829008319602415e-07,-0.2667091065924761,0.1337526676261986,-0.009667061506752797,9.800000025739859
1727705864.8265636,7.212070459855101e-09,6.311796544734866e-07,0.9999968678107628,0.002502872003263601,-7.557828656440566e-08,-3.067081751852693e-07,-0.2399022516987126,0.04233199954681748,-0.019218421254233026,9.800000059471484
1727705865.0432024,9.462508974462515e-09,6.299748862619099e-07,0.9999825704171617,0.005904139352117144,-9.392475278047073e-08,-2.7876152339871536e-07,-0.20415575941354727,-0.3516288210216892,-0.12784528990798735,9.799999725786668
1727705865.0559256,1.1892389395185623e-08,6.286421851379611e-07,0.9999520963078196,0.009788007417332933,-7.074414524005158e-08,-2.409263669416564e-07,-0.19319740006790598,0.09499508278907293,-0.00522059919097663,9.800000013806015
1727705865.0859907,1.366863083756105e-08,6.275974716032349e-07,0.9999195433415863,0.012684906115500827,-6.874220378672762e-08,-2.403946002070081e-07,-0.19313185653808707,0.09725586619031827,-0.00501447985127734,9.800000018303981
1727705865.117253,1.5440232360599428e-08,6.265774889587205e-07,0.9998787208975972,0.01557380800549596,-6.677585885096987e-08,-2.3914261558350127e-07,-0.19157692515320596,0.07554098830989396,-0.008005987515563856,9.800000019176675
1727705865.1512468,1.7188501784890348e-08,6.255817894713716e-07,0.9998299837505185,0.018439186344495206,-6.483014162208461e-08,-2.3701865197250345e-07,-0.19099042318997606,0.0957667370264664,-0.004963971270095487,9.8000000176239
1727705865.190425,1.9514888459731464e-08,6.242812739514812e-07,0.9997519580070638,0.022271561702145115,-6.235444385616637e-08,-2.3785564996405966e-07,-0.19199214491538025,0.09749837679207778,-0.004923423143350643,9.800000020608444
1727705865.408133,2.126227695793864e-08,6.233464928952235e-07,0.999684234473897,0.025128297673137234,-5.897702315626554e-08,-2.3496011338832286e-07,-0.18748697224026661,0.03332161780277336,-0.009213364002717054,9.800000046484824
1727705865.437283,2.2950864371645223e-08,6.224273194982792e-07,0.9996102523110821,0.027916723915718533,-5.880977965651007e-08,-2.2940903650725088e-07,-0.18577851856192912,0.09225585373727928,-0.004816210302933985,9.80000001598207
1727705865.513372,2.5188484238242928e-08,6.212328481664189e-07,0.9994994962220283,0.031634744372682044,-5.656060621173503e-08,-2.2940641270472355e-07,-0.18609795198779316,0.09400414536888739,-0.004612032307089557,9.800000015358517
1727705865.75671,2.6865977785600552e-08,6.203597665849592e-07,0.9994081558504662,0.034399680509916486,-5.500885899191877e-08,-2.2624109112585767e-07,-0.18108059266702486,0.023353513396274474,-0.014366508407354182,9.800000019098498
1727705865.7679996,2.847966696380375e-08,6.195078801072185e-07,0.9993119756549262,0.03708874913316995,-5.336684043349997e-08,-2.2015754541520062e-07,-0.17918381640748177,0.08876541399390359,-0.004528686109061882,9.800000015196161
1727705865.8170762,3.0615590318845366e-08,6.184018998603831e-07,0.9991726703632247,0.0406690889846274,-5.132489276627858e-08,-2.1976498887359245e-07,-0.17915200618701035,0.09021205123716526,-0.004312547906701261,9.800000014085876
1727705865.8463528,3.2214305777360194e-08,6.175937755588236e-07,0.9990592983566852,0.04336494398319113,-4.9814009900779125e-08,-2.2083979068043005e-07,-0.18134377601260626,0.12091781285921935,-7.470458738757919e-05,9.800000012093566
1727705865.9309084,3.383727627297676e-08,6.16801936715274e-07,0.9989371318508276,0.04609345516730656,-4.840497958891086e-08,-2.2319362491064932e-07,-0.18217120812491128,0.0923831885228604,-0.004364465594238077,9.800000013381327
1727705865.9622066,3.5464818572960755e-08,6.16026474717635e-07,0.9988068975615294,0.04883422348242589,-4.7008619653064145e-08,-2.244479876700276e-07,-0.18342956350542244,0.09604415151352624,-0.003982443241616898,9.8000000116951
1727705866.198597,3.764566490722694e-08,6.150160258844257e-07,0.9986220009499834,0.052479512366940206,-4.5287415120391384e-08,-2.2214628088989458e-07,-0.17943232860334468,0.03500397463541952,-0.0124496045789709,9.80000001623646
1727705866.2026324,3.924729343904699e-08,6.142777555174211e-07,0.9984758844502044,0.0551897469735379,-4.393322703350627e-08,-2.2119667476513622e-07,-0.18112513526868654,0.09252054793206664,-0.004215702884825713,9.800000012108773
1727705866.2250485,4.085491878908906e-08,6.135536139272399e-07,0.9983222274464126,0.057902764925821804,-4.267719077191753e-08,-2.2113537653172762e-07,-0.18116166846505155,0.09126068775246145,-0.004405065046188152,9.800000012493385
1727705866.2668412,4.299540992521893e-08,6.126101343893912e-07,0.9981051608136022,0.061531194989821125,-4.1022638801820724e-08,-2.2225052151666424e-07,-0.18349671050069755,0.12393316432957144,0.00010249286495025592,9.800000010432301
1727705866.2969549,4.462672477012884e-08,6.1191658608465e-07,0.9979312594633858,0.06428997888819088,-3.987778676733026e-08,-2.2479498183490527e-07,-0.18437791942527196,0.09354408897429003,-0.004466543826748979,9.800000011788093
1727705866.3267198,4.626039674281126e-08,6.112353911880345e-07,0.9977496212651887,0.0670499311319338,-3.874262302644245e-08,-2.2468823515958184e-07,-0.18439693720239508,0.092888257132808,-0.004565097884554323,9.800000011895802
1727705866.5631495,4.844058774367771e-08,6.10343460039801e-07,0.9975030077983398,0.0706240004027735,-3.761167028774501e-08,-2.1248359981064975e-07,-0.16332195649029635,-0.20236180273948162,-0.04534796954734646,9.800000027336619
1727705866.5954578,4.982262075332647e-08,6.097047544633534e-07,0.9973347831502203,0.07296115622938576,-3.628682812368576e-08,-1.8791671234246666e-07,-0.1553657409270846,0.07202135346322758,-0.004151369580502747,9.800000013032587
1727705866.6269596,5.0905753098450504e-08,6.056188880554833e-07,0.9971634033958663,0.07526717031749919,-7.297552442441274e-07,-1.8479480699306748e-07,-0.15203188016390534,0.035042067045658744,-1.9345398159183682,9.799988653372985
1727705866.8759642,5.138273089908188e-08,5.948342695013249e-07,0.9969963549754239,0.07744848717284353,-7.079846170929189e-07,-1.6943077652517119e-07,-0.14280194297849844,0.023700641887935716,-1.9334519511058332,9.800002450252412
1727705866.8863513,5.394178200575138e-08,6.068344521705999e-07,0.9967831182850869,0.08014621077435446,5.984168030006166e-07,-1.5791843576923375e-07,-0.13096568784475757,0.02317960230696328,1.7199787020922108,9.799997784172106
1727705866.9160485,5.524851939560742e-08,6.076762902267493e-07,0.996606122953034,0.08231789411877627,-2.8176972299106947e-08,-1.7625387560208199e-07,-0.1469666613599723,0.0862576231527071,0.012359397602955539,9.79999939609439
1727705866.9458926,5.6514645509948546e-08,6.070967995970162e-07,0.9964218394567572,0.08451933419780672,-3.213678633508336e-08,-1.7725720756409477e-07,-0.14731292317279704,0.07435479649275839,-0.0028454524388860083,9.800000007025893
1727705867.014961,5.815519957552007e-08,6.06297642301972e-07,0.996177185652294,0.08735567975526398,-3.0870771705983144e-08,-1.7035113214878445e-07,-0.14184991140192535,0.07013553587111011,-0.00293783734308429,9.800000011505448
1727705867.0470846,5.937744380913059e-08,6.057814275503328e-07,0.9959874439638313,0.08949308054829197,-2.909889217913524e-08,-1.725126643005732e-07,-0.14389271968931036,0.07842661328091945,0.0006577160232031151,9.79999989012897
1727705867.266913,6.061269026769076e-08,6.052367497390235e-07,0.9957917543160048,0.09164486911924247,-2.9175894676439485e-08,-1.7298250117091761e-07,-0.14406271170102053,0.07257128912051153,-0.0027692227993081726,9.800000007749542
1727705867.2742393,6.222947078035523e-08,6.045313120096718e-07,0.9955301358603963,0.09444442065792574,-2.8081345875090903e-08,-1.6816290913550125e-07,-0.14024206641299752,0.06970361136141308,-0.00276330447992889,9.800000007908615
1727705867.3017337,6.340607485832237e-08,6.040130015935828e-07,0.9953348922586762,0.09648032054279504,-2.7284558619924168e-08,-1.627791855956181e-07,-0.13588512969159544,0.06494653917633475,-0.002984256778315629,9.800000009164068
1727705867.6000266,6.456297497569633e-08,6.035062353774195e-07,0.9951362953216538,0.09850763286733527,-2.6499068276956427e-08,-1.6245942740970322e-07,-0.13579110060192184,0.0681893211677702,-0.002496364720203289,9.800000007342092
1727705867.6021879,6.530803613681834e-08,6.01735427748195e-07,0.9950205537825338,0.0996699430617548,-1.514856127560315e-07,-7.492193958603714e-08,-0.05509915245271092,-0.2408017593840144,-0.3915222079388645,9.799999971887846
1727705867.6222503,6.57429303450053e-08,6.011458961725156e-07,0.9949241157851114,0.10062804692951244,-2.1794792071655206e-08,-5.1672468880038405e-08,-0.047456098139041246,0.021783819337474416,-0.0006846458704816685,9.800000011425073
1727705867.6574602,6.605391716481398e-08,6.007964451604742e-07,0.9948522939007898,0.1013356468374847,-2.1100324205564928e-08,-5.167673297196924e-08,-0.047410885296301594,0.023344520148116443,-0.0003104546838803165,9.800000004147853
1727705867.685087,6.630259042653067e-08,5.997416405015421e-07,0.9947764678581892,0.10207731871096909,-3.7098978108983573e-08,-5.5954260501188815e-08,-0.05126774973532111,0.03641576820805576,-0.04826088051217501,9.800002232732771
1727705867.737866,6.671735220792455e-08,5.987159616083155e-07,0.9946733192802353,0.1030775820034402,-1.375814039616359e-07,-5.416942105929896e-08,-0.04646375269698314,-0.0465749454926092,-0.3409142926822466,9.7999980553554
1727705867.9910316,6.701143965162906e-08,5.983400449971056e-07,0.9946039293568413,0.10374499365062961,-1.6684463143727645e-08,-4.844862953771534e-08,-0.04452748948455286,0.020104040128930016,-0.0014158936411893298,9.800000045737141
1727705867.9964619,6.621760452635968e-08,5.878266771854631e-07,0.9945371394617244,0.10438332352890661,-6.95717112206193e-07,-4.4471388406720266e-08,-0.04193083416769812,0.006446589313281006,-1.924749601179997,9.800002416046935
1727705868.0263224,6.515286194015673e-08,5.742987378437911e-07,0.9944535995226752,0.10517622543170413,-6.681947720787104e-07,-3.9370194997451894e-08,-0.0386504727684503,0.0025813762922480975,-1.924349934584021,9.800002357924559
1727705868.0567737,6.435234856362082e-08,5.645079907741102e-07,0.9943949292877454,0.10572948787588399,-6.482686439176925e-07,-3.587158909411093e-08,-0.03632378372925479,5.168627939738903e-05,-1.924057606377518,9.800002315845251
1727705868.1201138,6.35523039821985e-08,5.550114727379924e-07,0.9943395408285217,0.10624912961814031,-6.28935897434629e-07,-3.26355035539065e-08,-0.034108924096768245,-0.0021855886977911556,-1.9237713477048264,9.800002275019434
1727705868.1520894,6.275447215723285e-08,5.458002949137185e-07,0.994287310546361,0.10673679818217341,-6.10176520827028e-07,-2.964563408751655e-08,-0.032003278139099256,-0.004151438319879871,-1.923490902234013,9.80000223543559
1727705868.396736,6.450684037321602e-08,5.597528955811709e-07,0.9942228273194198,0.10733577985304238,6.923085316184833e-07,-2.8390681643269047e-08,-0.029034012495637952,-0.0022808600476435484,1.7288009259161008,9.799997913385468
1727705868.3994057,6.577482367800896e-08,5.698546737760619e-07,0.994178188386617,0.10774845584033077,6.717031273147321e-07,-2.6835125862237657e-08,-0.027009532901712117,-0.0005104103161953644,1.728778091186075,9.799997882306036
1727705868.4150352,6.700405726609307e-08,5.79655725027873e-07,0.9941364911103763,0.10813249762401805,6.517090306480587e-07,-2.5349703304852167e-08,-0.025141736983422872,0.0010273760282796575,1.7287419691311559,9.799997852180582
1727705868.738132,6.737050107615617e-08,5.834329158164238e-07,0.9941526987520759,0.10798338559065213,2.820022741409168e-08,2.760230309963694e-08,0.020178279104863826,-0.05058860662207408,0.032869665400358086,9.799998252180547
1727705868.7407143,6.69318549653817e-08,5.818675576735384e-07,0.9941847867014233,0.10768755680719239,1.0870746300522008e-08,2.9103698322649617e-08,0.019799734032260766,-0.006843591604852918,-0.017469819502246596,9.80000078366582
1727705868.7447457,6.669939442130435e-08,5.821413998378554e-07,0.9942167150935923,0.10739238068020956,1.672094466055993e-08,2.8908609774396215e-08,0.019792422291023633,-0.007084456430107233,-8.367717123148501e-05,9.799999998892636
1727705868.7874036,6.639272030564222e-08,5.825013532604848e-07,0.994259147998228,0.10699881598173816,1.6080335147467066e-08,2.8696075784896842e-08,0.019792264797565372,-0.0070899347544617726,-3.56090058489947e-05,9.79999999679271
1727705868.8175042,6.633176847076222e-08,5.841939013487608e-07,0.9942873257598064,0.10673665646378033,1.775129150487463e-08,2.5710686465517612e-08,0.017311962000950514,-0.004377246119545699,0.014187334825024099,9.799999369009901
1727705868.853916,6.619060230702578e-08,5.850141475415796e-07,0.9943171219558347,0.10645872902265402,1.345359867129862e-07,2.7419560283248435e-08,0.02137093389917727,-0.0635251532384278,0.3309060993165604,9.800002010948432
1727705868.8768067,6.594644060127024e-08,5.853017219784034e-07,0.9943533980276555,0.10611936595413796,1.0918146882301947e-08,3.2075195975441064e-08,0.022917633293466213,-0.00968665429596375,0.0007187544255616002,9.79999995586939
1727705869.14454,6.569354343125951e-08,5.874311283250475e-07,0.9944347885335127,0.10535393373746477,1.8681346872840888e-08,6.081013559842804e-08,0.0478750462999193,-0.04886197490392276,0.02860510869504022,9.79999851071487
1727705869.1495445,6.519350909177738e-08,5.875885426345418e-07,0.9945113815374461,0.10462844733690285,6.417783606223271e-09,6.322193341193433e-08,0.048725045228503724,-0.019198370988891215,-0.00029729324867029113,9.799999995341897
1727705869.1744883,6.469064747348284e-08,5.877332619146633e-07,0.9945876117805473,0.10390131131182911,6.197785809593917e-09,6.311799844846428e-08,0.04874334440894387,-0.01855883340261986,-0.00029453525421473196,9.799999999177862
1727705869.2534232,6.405866414394544e-08,5.88431171641268e-07,0.9946961068538073,0.10285744994665591,1.782800026675361e-08,7.188960294116557e-08,0.05711530445803815,-0.04661357887935567,0.03130003828913989,9.799998420191287
1727705869.2824392,6.347789155577994e-08,5.885725461239312e-07,0.9947848013778031,0.1019960731958528,4.884233815387526e-09,7.382108874684705e-08,0.057801821709817444,-0.02268281079443694,-0.00039977476148236993,9.799999995497062
1727705869.3155851,6.185145346270066e-08,5.78453583783134e-07,0.994868985452743,0.10117164515757776,-6.751066326715795e-07,6.971992522891331e-08,0.05399154697595569,-0.004128155152178518,-1.9206011177131426,9.800002369164183
1727705869.5344315,6.179966275452268e-08,5.848872558839616e-07,0.9949719103347012,0.10015436907379277,6.428440074165906e-07,6.262202706072682e-08,0.04951332169761423,-0.0002560940372678182,1.7315296861881206,9.799997834841493
1727705869.5441542,6.13678725444303e-08,5.862585032658501e-07,0.9950627852686188,0.09924743509588085,1.3947713499248298e-08,7.768565159721542e-08,0.06210406369564567,-0.03240351582973785,0.009080707557204479,9.799999507986325
1727705869.5819142,6.076180574876167e-08,5.864663847238157e-07,0.995155165083806,0.09831682158549865,9.67557613172014e-09,7.83741212369286e-08,0.06237462833236354,-0.02294888025314667,-0.000494198568636677,9.799999997506688
1727705869.8650703,5.988718740559871e-08,5.838699357062395e-07,0.9952431411155178,0.0974222257093948,-5.5697205160505254e-08,7.360009123341753e-08,0.05825586452923531,-0.008537008358922446,-0.19274315768129308,9.80000873281941
1727705869.882236,5.914459864746737e-08,5.841772318233172e-07,0.995355378528229,0.09626874069281988,1.4504326543742451e-08,7.230793283704543e-08,0.057916001002941635,-0.020117491989195713,-0.000490222538355663,9.800000001088996
1727705869.9103403,5.861567924733857e-08,5.848382483449907e-07,0.9954430424591225,0.09535800553377777,1.4722026308161933e-08,7.62784069827581e-08,0.06136274029429271,-0.024197094640127113,0.002952678729929229,9.799999827097174
1727705869.9423501,5.799121303040892e-08,5.846884250361934e-07,0.9955268601120655,0.09447894365977189,-6.772640681345284e-08,7.248997071045246e-08,0.053759875700173695,0.08556413911306424,-0.2092050866586243,9.799998662489644
1727705870.0067427,5.732785162794087e-08,5.849519934571217e-07,0.9956228754270484,0.09346170299128187,1.3218606006628684e-08,6.343466708977978e-08,0.050822930567204716,-0.01707942793889109,-0.0003178060155086443,9.80000000140139
1727705870.0374908,5.692458745059911e-08,5.851968593949542e-07,0.9956739548978039,0.0929159595431272,1.278190572050007e-08,4.46561806159885e-08,0.034840556905299455,0.00030288333862119385,0.0018127465136248701,9.799999985257907
1727705870.283659,5.6453154211252676e-08,5.846045445436865e-07,0.9957469262604726,0.09213066179332474,-6.587420092548275e-09,7.558731955955832e-08,0.06487158690742648,-0.11245394516704069,-0.07018904879191219,9.800002584762243
1727705870.3050675,5.563407574270537e-08,5.849687113662855e-07,0.9958664045703085,0.09083008448670266,1.4392627463101212e-08,7.855491891708572e-08,0.0632081930576117,-0.009808940482016538,0.0032268329120058977,9.799999902013855
1727705870.337342,5.5044847347724285e-08,5.852219600599788e-07,0.9959516788019462,0.0898902302324297,1.3230456851481256e-08,7.748921231902902e-08,0.06287931197693707,-0.021356283306221104,-0.0004606757179790673,9.7999999976245
1727705870.411814,5.443468771287272e-08,5.851043536559372e-07,0.9960322465970474,0.0889930544396183,4.3889356285043194e-09,7.233060923333029e-08,0.05812521796762429,-0.0058101428879354594,-0.023545679325604075,9.800001124725206
1727705870.4412055,5.3894677541894556e-08,5.853429399528166e-07,0.9961089994670309,0.08812979734712256,1.3115321718813519e-08,7.107514708029141e-08,0.05773608219289798,-0.0194275006848077,-0.00044775922615185895,9.80000000092271
1727705870.4827468,5.317874212756914e-08,5.856607671198605e-07,0.9962100872813553,0.08697966428153447,1.2624478116461772e-08,7.095368644082688e-08,0.057727579036920794,-0.01972590545221897,-0.0004219249625461702,9.799999998046694
1727705870.6946013,5.2593998097933334e-08,5.856790371871666e-07,0.996295955772591,0.08599051407471486,7.2819677382525835e-09,8.592343416079877e-08,0.07197353154130452,-0.06687480283616826,-0.021732754603944696,9.800000689874492
1727705870.7009134,5.188655161061097e-08,5.856661865052868e-07,0.9963942471217015,0.08484399980217744,6.5518300779372684e-09,9.587517520790314e-08,0.07936457934277386,-0.046334514056932743,-0.02129343616929503,9.800000802789562
1727705870.7364006,5.090446521373162e-08,5.859958776746124e-07,0.9965284887546584,0.08325245401794601,1.2533649081958192e-08,9.738936747864292e-08,0.07990903044132636,-0.027174985958135108,-0.0008525645483380309,9.799999998951446
1727705871.0126712,4.998290654606566e-08,5.841893795688893e-07,0.9966320135203054,0.08200383909377768,-3.5489453679297855e-08,1.0343686926892476e-07,0.08599844779916863,-0.04663997501212424,-0.1458119151401876,9.800006410731525
1727705871.0290098,4.919266908051972e-08,5.844517714054229e-07,0.9967375102268785,0.08071143479321496,1.5842663523214846e-08,1.0475667237233635e-07,0.086500317917693,-0.028656609611337498,-0.0014329341342127606,9.800000016252444
1727705871.063022,4.815058223313519e-08,5.850559947077863e-07,0.996877279355855,0.07896638464386868,1.5688608661268977e-08,1.0652952771323281e-07,0.08803545899268617,-0.030051110780089423,0.0008465504204951663,9.799999907345397
1727705871.0952766,4.728940546602695e-08,5.847546672013442e-07,0.9969845558660039,0.07760022786256937,9.600368325844196e-10,1.1231516822579692e-07,0.09361089941280121,-0.04701961343325204,-0.044013970643690475,9.80000182842536
1727705871.140894,4.643429196318152e-08,5.850385896880963e-07,0.9970930021492728,0.07619412749422483,1.5267866071035222e-08,1.1358555290800149e-07,0.09406695740003826,-0.030876020184708843,-0.001325861256963084,9.800000003749368
1727705871.1705527,4.552485793528165e-08,5.846747576605897e-07,0.9972003106020049,0.07477660419490079,1.3880011025225084e-08,1.1432240672925e-07,0.09485668365528596,-0.031064373271177215,-0.007593483033450731,9.800000283381895
1727705871.4117498,4.410144824699686e-08,5.813888179861414e-07,0.9973427402238298,0.072852306226239,-1.0500196120929061e-07,1.172272987639395e-07,0.10004000370416394,-0.08454305485914325,-0.36012956452713246,9.800010220791618
1727705871.4191217,4.319255856977124e-08,5.815698760517286e-07,0.9974510671767929,0.07135382671964197,2.2050766524393768e-08,1.1969776659141626e-07,0.1001738075022885,-0.030037575424877897,-0.0034819160854219055,9.800000093631605
1727705871.4382527,4.2279056388551426e-08,5.816866067850136e-07,0.9975567563569425,0.06986070316190113,-3.4001980837924745e-08,1.1915275993337544e-07,0.09901931798981706,-0.014004285967731631,-0.1547466271314229,9.79999907085708
1727705871.5212014,4.110352968503261e-08,5.821639314006234e-07,0.9976926053630198,0.06789304237997346,2.188010342879996e-08,1.176810488601281e-07,0.09857738510793182,-0.029177664778599403,-0.0013295304914087537,9.799999999939415
1727705871.5633109,4.022525625327183e-08,5.825436116554774e-07,0.9977919031138214,0.06641775425409502,2.1253557811882864e-08,1.1765891633066408e-07,0.09857478907330826,-0.02926909366589226,-0.0012819213551857086,9.799999997365376
1727705871.590511,3.9346488918131156e-08,5.829124925967999e-07,0.9978890190394896,0.06494232579807713,2.0623345511252986e-08,1.176445761774095e-07,0.09857473326517091,-0.029271062914001944,-0.0012820381469889881,9.799999997485907
1727705871.7861023,3.800187412414175e-08,5.806412305203059e-07,0.998013770755868,0.06299613782856228,-4.393679269445114e-08,1.1462258677753515e-07,0.09618610409496031,-0.02054230905572376,-0.19034674313947558,9.800008554190663
1727705871.797241,3.709112392416109e-08,5.798675862569283e-07,0.9981015692324334,0.061589426815129855,2.277567069336524e-08,1.1099636209093366e-07,0.09369994203416815,-0.02385285291045096,-0.012469446264616917,9.800000517040452
1727705871.826425,3.627022598164222e-08,5.803101088891176e-07,0.9981871045053357,0.06018724448681839,2.618846678549605e-08,1.1084408637532069e-07,0.0936469451498384,-0.02569768867848436,-0.0011857613574264199,9.799999997634451
1727705872.0821025,3.523892782419547e-08,5.772811453555894e-07,0.9982700400961082,0.05879563798599119,-6.682551874615096e-07,1.104921246086233e-07,0.09152313784994498,0.0006836438059562146,-1.9199881585143528,9.799988542294255
1727705872.1008873,3.3422643446706326e-08,5.643284726395831e-07,0.9983701438496564,0.05707062177072014,-6.418891345130361e-07,9.795829080559726e-08,0.0833906514832412,0.007669901913866754,-1.919712891791678,9.80000229833761
1727705872.130234,3.217680818158579e-08,5.549459260586195e-07,0.9984375296366146,0.05587932902984272,-6.227765452161939e-07,8.939088297322032e-08,0.07765877653469988,0.012063665184510738,-1.9195255717248596,9.800002258128577
1727705872.1627238,3.102225383982453e-08,5.458390810115135e-07,0.9984989559085804,0.05477074994169745,-6.042291862541448e-07,8.148673675818797e-08,0.07223194893754306,0.01579642142691132,-1.9193571445219149,9.800002219123662
1727705872.2265422,2.981987329291617e-08,5.376320036800697e-07,0.9985609638887096,0.05362836373936103,-1.4142674302251075e-07,5.063924984806221e-08,0.03427712011622576,0.29231210145714326,-0.6573327497316648,9.800004239035951
1727705872.2674713,2.9688265358768695e-08,5.378963238817773e-07,0.9985653900967204,0.05354588406865607,1.0346405070048953e-07,1.886944661943752e-09,0.0009389177488785044,0.03421280979626131,-0.018674897883356755,9.800001020972832
1727705872.4733071,2.978318520744944e-08,5.39533171686815e-07,0.9985654845804665,0.053544122033007346,1.0864011615902655e-07,-6.795595915176884e-10,2.006519260268358e-05,0.0007313748448112449,5.0031267278571985e-05,9.799999980934407
1727705872.4864953,2.991091762450254e-08,5.416488104688807e-07,0.9985654866316553,0.053544083779545726,1.0438073544322206e-07,-7.068635253148258e-10,1.1901934153530526e-07,4.3554405123802655e-06,1.1258634123095921e-05,9.799999979216032
1727705872.5186298,3.000346892756668e-08,5.43180662793943e-07,0.9985654866436326,0.05354408355616075,1.0128089712139368e-07,-6.862511800768298e-10,2.5440025168819906e-09,1.1007195528929148e-07,1.0701465129033672e-05,9.799999979816723
1727705872.545758,3.009327153276899e-08,5.446670180403268e-07,0.9985654866438876,0.053544083551385735,9.827214612894447e-08,-6.66036153528625e-10,5.445011971172183e-11,1.9518210930734967e-08,1.0716881767930341e-05,9.799999980412574
1727705872.645426,3.018040787205453e-08,5.461092192825217e-07,0.9985654866438924,0.053544083551282706,9.535395860395593e-08,-6.460890895972293e-10,1.2300474413972103e-12,1.7770306323750436e-08,1.0744140819881129e-05,9.799999981032217
1727705872.6837177,3.027775117889698e-08,5.47968238615941e-07,0.9985580303933715,0.05368295759931302,9.191206935911176e-08,-1.2884595155908768e-08,-0.027814813622602748,0.38946746906976903,0.054065178979358294,9.79999996474937
1727705872.8830683,3.077339202903351e-08,5.492940042963392e-07,0.9984918539794942,0.05490006863647506,8.90525581318488e-08,-1.0218112267365105e-07,-0.10734397229148412,0.3624865658326637,0.04812524534024951,9.799999927422821
1727705872.886315,3.1924781725697346e-08,5.505617440772204e-07,0.9983612628549299,0.057225770684241506,9.049690163375855e-08,-1.832754475626001e-07,-0.17601913263854302,0.2633320578057233,0.04150200085639292,9.800000010731619
1727705872.9167273,5.39663634965919e-08,5.632752777475504e-07,0.9955870261735851,0.09384281173599224,5.726427399557665e-08,-1.0508978227840417e-07,-0.10735249118702198,0.36248360636383126,0.04806787882060519,9.799999932082052
1727705872.9334648,3.404749791864555e-08,5.521436374968275e-07,0.9981456904504198,0.06087019496394375,8.373280645670277e-08,-2.0414636490606916e-07,-0.18318529268543188,0.0022253869760409826,-0.004463421740422304,9.799999987693306
1727705872.9477146,5.570223971952905e-08,5.703650178417424e-07,0.9954044071252361,0.09576046300706992,6.730485473138401e-07,-1.459250919232271e-07,-0.12478804408218098,-0.04128765214233851,1.721256053449186,9.799997211881916
1727705873.1879096,5.8399995497724106e-08,5.832933208490019e-07,0.9951766071580539,0.0980995441632675,6.464568464231057e-07,-1.3603948452176825e-07,-0.1133012678554971,-0.028712109208992545,1.7223556936908326,9.799997851434869
1727705873.1919181,6.029017794661509e-08,5.920630895016652e-07,0.9950189278900685,0.0996861732646217,5.089178182892386e-07,-1.2614975115465561e-07,-0.10023801667831274,-0.09407614754089841,1.385233727692631,9.799995886089805
1727705873.2031777,3.565479738591193e-08,5.532732134995976e-07,0.9979671650306696,0.0637301931610188,8.03292122181907e-08,-2.152755982906257e-07,-0.20667216717833964,0.32915564509847706,0.0363837723550156,9.79999995516412
1727705873.206372,3.763131727173967e-08,5.543273242727403e-07,0.9977193737665604,0.06749852746951862,7.791970344401654e-08,-2.9173873644700693e-07,-0.273830902543164,0.30848411700945133,0.025964461434881646,9.799999954236725
1727705873.2134433,6.167472186585113e-08,5.976404624930151e-07,0.9949069878029738,0.10079725006393869,2.6438297285179197e-07,-8.770332120043395e-08,-0.06223036797476626,-0.2288464175539257,0.7285849876004962,9.799992099416166
1727705873.2363923,4.1135288622685806e-08,5.557073164256958e-07,0.997268800426632,0.07385756356200934,8.115700161186262e-08,-3.704225141162063e-07,-0.3329202168169231,0.06214128152082581,0.0006528480239210499,9.799999813080133
1727705873.2662413,4.40425882430356e-08,5.566427186954468e-07,0.9968858294282524,0.0788583735872968,7.604907295541493e-08,-3.7572790487175123e-07,-0.33453543179618295,0.003505729619885529,-0.015455515844013586,9.800000000874608
1727705873.2985044,4.696318362917909e-08,5.575258953011073e-07,0.9964775273770854,0.0838602255669349,7.376014492746203e-08,-3.7651322999526757e-07,-0.33456996508789943,0.0022477029387816447,-0.015658099624265762,9.800000002858791
1727705873.3449438,4.981426369466363e-08,5.583235190208833e-07,0.9960932869189293,0.08830721235963324,6.71137955378161e-08,-3.180096039661664e-07,-0.2605714214605047,-0.5167089926502809,-0.09031896552628105,9.800000089318427
1727705873.510058,6.226456188193092e-08,5.993951205343181e-07,0.9948644827050077,0.10121591303611366,7.63724349296381e-09,-2.5903046616361826e-08,-0.018368945935861285,-0.06796988178010818,0.05808559091207375,9.799996952429257
1727705873.5236144,6.326624313084635e-08,6.073150106483202e-07,0.9948459170941738,0.10139823095438838,6.864135797454134e-08,-1.2094317804245952e-09,0.0034543132449025267,-0.11342994238431717,0.2639330389398206,9.799994746291208
1727705873.5535634,6.317802478525512e-08,6.069879226091391e-07,0.9948568298720396,0.10129110551565113,-3.042414626710439e-08,9.965897615864851e-09,0.008166920931288586,-0.009274144496545638,0.004834926784047044,9.799999744699978
1727705873.5830262,6.3049125091668e-08,6.065215046022952e-07,0.9948695013663416,0.1011665718046954,-3.158230423890172e-08,1.0550058768539943e-08,0.008366324519421809,-0.002200815474940998,-2.4501674340495947e-06,9.800000005634564
1727705873.6102502,5.232380837364707e-08,5.594134465083118e-07,0.9957873087510789,0.09169316075895717,6.455146445193004e-08,-1.5529740515137504e-07,-0.11727282026538668,-0.48373118546179805,-0.07156575837723438,9.800000070343316
1727705873.6146705,5.3169523637937685e-08,5.60290892212118e-07,0.9957169938069117,0.09245360049132556,6.283052964223982e-08,-4.2297169139079166e-08,-0.01854217231994198,-0.44950517150715025,-0.06280134653147088,9.800000060843928
1727705873.624495,6.285447019392097e-08,6.065003715245805e-07,0.9949052033557585,0.1008148616785492,-3.118378033471965e-08,2.3160580692235012e-08,0.018598463671634376,-0.006794142067063368,0.00043783110725036,9.79999997190885
1727705873.6468573,5.335010566750023e-08,5.612565229301536e-07,0.9957136376103428,0.09248973930366888,6.14510264072693e-08,-1.3567560984450628e-09,-0.00043830089141547277,-0.01597600548491908,-0.0018123555684181648,9.799999975757684
1727705873.6672692,6.27338601383757e-08,6.075243494322306e-07,0.9949514411083954,0.10035751011236838,3.5009385292012173e-09,4.5493773020337507e-08,0.03884196399051458,-0.07010442122675137,0.09270190702574045,9.799995454412583
1727705873.6853127,5.345220292770753e-08,5.624499674704709e-07,0.9957006845110741,0.09262908217109311,5.919756641103421e-08,-1.3283689235993496e-08,-0.02782396189267887,0.38946437037728143,0.05400384112598899,9.79999996920766
1727705873.9328272,6.230940618531953e-08,6.071020952106326e-07,0.9950119541042983,0.09975575767429579,-3.2352151402136716e-08,5.0463249354229744e-08,0.040494978953266356,-0.011637949684331815,-0.0001094208564142763,9.799999994711804
1727705873.9395115,6.239631374242268e-08,6.138768845798587e-07,0.9951251028038879,0.09862063561532297,1.3983586307668757e-07,8.883655687468976e-08,0.08050194130775618,-0.27263164373325366,0.4739857618419622,9.799998456686753
1727705873.9677486,6.167556505434543e-08,6.151399580813564e-07,0.995259278598565,0.09725722781923313,-4.153943527176054e-08,1.1670159359820454e-07,0.0926204099289988,-0.03780439101915081,0.015471479587792476,9.799999205076936
1727705873.9982476,6.071317505781296e-08,6.145264234593659e-07,0.9953937720499838,0.09587094744354835,-4.662642002656659e-08,1.1729528270437498e-07,0.09288025530825442,-0.028691508085689217,-0.001112888971965394,9.80000000864069
1727705874.096849,5.9098025928800666e-08,6.070559812016002e-07,0.9955234331844283,0.09451504631706575,-7.320451534640734e-07,1.1324885013022766e-07,0.0887388620591113,-0.0005757041309341749,-1.9200491115436908,9.800002487415343
1727705874.137123,5.667323741047379e-08,5.929408865044943e-07,0.9956803936996383,0.09284693641568448,-7.031418145812896e-07,1.0037643759702677e-07,0.08086342485619771,0.006309652607826025,-1.9197750248086203,9.80000242706377
1727705874.340862,5.498881629159224e-08,5.827139919941037e-07,0.9957871599658481,0.09169477655137903,-6.82211463958966e-07,9.157980697959002e-08,0.07531105979244668,0.010649211509243276,-1.9195935311855081,9.800002383011885
1727705874.3428316,5.5206936281794606e-08,5.922691431676592e-07,0.9958856132681384,0.09061923242441611,6.293941066506082e-07,8.466322223584998e-08,0.07039443831737435,0.012755148460849072,1.7324865058720724,9.799997813275642
1727705874.3810282,5.545632974859048e-08,6.041960126719811e-07,0.9960069583484168,0.08927563453242399,5.300040102195314e-07,8.121920964612359e-08,0.06775784612514611,-0.03982789419932029,1.5192143401948728,9.79999656244129
1727705874.6633687,5.4835892907436674e-08,6.058983941340676e-07,0.9961318829892103,0.0878707669933525,-7.656134385851756e-09,1.228361996724014e-07,0.10141078588849131,-0.08094191994698924,0.04730061242254279,9.799997485116684
1727705874.6652458,5.433960553622749e-08,6.09598639948906e-07,0.9962213229853385,0.0868508815670132,1.9471662851977474e-07,7.349691714567534e-08,0.048973109079035765,0.24943270186064476,0.6689071741326457,9.799999151413317
1727705874.681179,5.3996901026297794e-08,6.10084051452777e-07,0.9962615287168918,0.0863884621827869,-3.624479786183836e-08,2.5425192776964575e-08,0.020417265168206043,0.0006020301623563249,0.0028608100564975598,9.79999991672885
1727705874.7107983,5.286861444875263e-08,5.992998511102739e-07,0.9962866571205371,0.08609818141646858,-7.154712924270066e-07,2.3940367404354837e-08,0.01893667073964976,-8.50764670918364e-05,-1.9212188003421355,9.80000245454735
1727705874.7400787,5.201288554093698e-08,5.913340779290533e-07,0.9962986061266621,0.0859598012428921,-2.815055332042489e-07,6.7479318654547655e-09,-0.004715767425305901,0.25912289291093504,-0.7395882068283611,9.800007416270551
1727705874.7719216,5.176372406118023e-08,5.858251916420171e-07,0.996247200619482,0.08655353983228864,-6.882018190117854e-07,-5.597446875519112e-08,-0.046155436910248995,-0.00627566411002638,-1.9243493245932868,9.799992578619335
