timestamp,orientation_x,orientation_y,orientation_z,orientation_w,angular_velocity_x,angular_velocity_y,angular_velocity_z,linear_acceleration_x,linear_acceleration_y,linear_acceleration_z
1727705494.5047116,6.132400791909353e-07,-1.3165519695774888e-09,-1.4274793684321274e-06,0.9999999999987931,-3.8584223424838624e-08,3.995493614318591e-10,1.4912154295628505e-14,2.5686477684105e-08,1.2009713753406933e-05,9.799969111493859
1727705494.5094883,6.126728151680118e-07,-1.3106789093420946e-09,-1.4274793679880382e-06,0.9999999999987934,-3.7438064266970685e-08,3.876711901342178e-10,1.2250718770555797e-14,2.5576788652330086e-08,1.199888070234387e-05,9.7999700289195
1727705494.521373,6.121224024658752e-07,-1.304976288301206e-09,-1.4274793680990605e-06,0.9999999999987939,-3.63253939906534e-08,3.764502615284443e-10,9.805126349504728e-15,2.547060483387308e-08,1.1988364674342493e-05,9.799970919101069
1727705494.5531285,6.115883460302759e-07,-1.2994433113008435e-09,-1.4274793677659936e-06,0.9999999999987941,-3.5247004130732997e-08,3.6521251541107315e-10,9.512285375616149e-15,2.5367704470669743e-08,1.1978205333899172e-05,9.799971782806757
1727705494.5929263,6.109008724619671e-07,-1.2923222748654597e-09,-1.427479367543949e-06,0.9999999999987945,-3.3856823156433264e-08,3.50513385479481e-10,1.633717000010668e-14,2.5221497422875992e-08,1.1965056901065568e-05,9.799972894692957
1727705494.6462538,6.104031080970994e-07,-1.287166909806847e-09,-1.427479367155371e-06,0.9999999999987947,-3.285120946747777e-08,3.4031569360025393e-10,1.0870600826909468e-14,2.5126189378606575e-08,1.1955562996707561e-05,9.799973699738157
1727705494.8996484,6.099201210323276e-07,-1.2821665541867024e-09,-1.4274793669888375e-06,0.999999999998795,-3.1875779886180804e-08,3.2991956488788814e-10,1.415600012327912e-14,2.5028594179692013e-08,1.1946338721760576e-05,9.799974480893528
1727705494.9181418,6.092983776079758e-07,-1.2757310786630974e-09,-1.427479366822304e-06,0.9999999999987954,-3.062037891439017e-08,3.1692158066259544e-10,1.0417701254730159e-14,2.490909950319459e-08,1.1934488242412682e-05,9.799975486419669
1727705494.942109,6.088482015655423e-07,-1.2710710376072882e-09,-1.4274793666002594e-06,0.9999999999987956,-2.971082966071143e-08,3.0760354914043893e-10,7.865217748094353e-15,2.4824315462129677e-08,1.1925888467866818e-05,9.7999762145114
1727705494.973024,6.084113930384487e-07,-1.2665490143766232e-09,-1.4274793665447483e-06,0.9999999999987961,-2.8828219032443134e-08,2.9857449120646947e-10,7.178222663780796e-15,2.4736198134941753e-08,1.1917542634996137e-05,9.799976920966147
1727705495.0876591,6.078490984301971e-07,-1.2607279041281985e-09,-1.4274793662116814e-06,0.9999999999987964,-2.7692005849192602e-08,2.8653400082636985e-10,1.452610432569629e-14,2.4616666760226457e-08,1.1906815440097557e-05,9.799977830371546
1727705495.1076992,6.074419704361026e-07,-1.2565091750644932e-09,-1.4274793662671925e-06,0.9999999999987967,-2.686968133642758e-08,2.784397453156907e-10,7.439191075474223e-15,2.454499744144461e-08,1.1899050845944045e-05,9.799978488829849
1727705495.2990105,6.070469371029542e-07,-1.2524153681621428e-09,-1.4274793659341256e-06,0.9999999999987967,-2.6071252640629917e-08,2.7009955217233137e-10,9.989296655759312e-15,2.4464429905640078e-08,1.1891509829542592e-05,9.799979127728191
1727705495.3010848,6.066636374856871e-07,-1.2484450219924282e-09,-1.4274793658786145e-06,0.9999999999987972,-2.529686810623322e-08,2.619250596638496e-10,1.1234313115478728e-14,2.438619788516681e-08,1.1884189594414106e-05,9.799979747657366
1727705495.3381875,6.061702301860525e-07,-1.2433321350449972e-09,-1.4274793656010587e-06,0.9999999999987974,-2.429913762159202e-08,2.5172011676364526e-10,8.442798266411503e-15,2.4291039584006246e-08,1.1874754973822152e-05,9.799980545693893
1727705495.6000438,6.058129851373378e-07,-1.239634518062952e-09,-1.4274793654345252e-06,0.9999999999987976,-2.3577333390485554e-08,2.441794949396545e-10,4.570117010838338e-15,2.4224499985216198e-08,1.1867950896488012e-05,9.799981123504118
1727705495.6018276,6.054663461063681e-07,-1.2360474216889839e-09,-1.4274793652679918e-06,0.9999999999987977,-2.287737670124627e-08,2.3668273108809655e-10,9.987679161715612e-15,2.4148857137491795e-08,1.1861340410919861e-05,9.799981684143761
1727705495.631872,6.050201092336747e-07,-1.2314298436804577e-09,-1.4274793651569695e-06,0.9999999999987981,-2.197677505863321e-08,2.2709559798935225e-10,1.5295139497801687e-14,2.4053890734141064e-08,1.1852818884175229e-05,9.79998240586644
1727705495.6591341,6.046970105307355e-07,-1.2280861735640493e-09,-1.4274793651014583e-06,0.9999999999987983,-2.1323866975174212e-08,2.2067548078424025e-10,6.483395438810719e-15,2.4000556472266858e-08,1.1846650323439344e-05,9.799982928429621
1727705495.6890173,6.043835068389017e-07,-1.2248406648569536e-09,-1.4274793649349249e-06,0.9999999999987985,-2.069030750308502e-08,2.1406712818931705e-10,1.1345960325131782e-14,2.3931072903515676e-08,1.1840662801428135e-05,9.799983435470011
1727705495.7346613,6.039799441924244e-07,-1.2206624927692782e-09,-1.4274793648794137e-06,0.9999999999987987,-1.987438364543903e-08,2.0581913472248834e-10,4.337555102881801e-15,2.3860822021858295e-08,1.1832954259554918e-05,9.799984088194902
1727705495.96222,6.036877418151014e-07,-1.2176352265924878e-09,-1.4274793647128803e-06,0.9999999999987988,-1.9284685835608778e-08,1.9987631623667406e-10,4.970092609396271e-15,2.380069511160537e-08,1.1827390625832692e-05,9.799984560779562
1727705495.9641354,6.03404223482845e-07,-1.21469530393086e-09,-1.427479364601858e-06,0.9999999999987991,-1.871188394207113e-08,1.941138515696917e-10,3.151327066506388e-15,2.374847974358276e-08,1.1821990625294832e-05,9.799985019321987
1727705495.986147,6.031291263244373e-07,-1.2118435608631414e-09,-1.4274793644908357e-06,0.9999999999987992,-1.815553910461687e-08,1.8807341731752243e-10,1.1655416155251902e-14,2.3680992062026727e-08,1.1816716117662182e-05,9.799985464283841
1727705496.02694,6.027750114456807e-07,-1.2081744431217816e-09,-1.427479364268791e-06,0.9999999999987994,-1.743943407480933e-08,1.807355905709932e-10,2.2151424785444257e-15,2.3625988746376666e-08,1.1809961021393855e-05,9.799986037042599
1727705496.1090639,6.025186100820287e-07,-1.2055224052398361e-09,-1.427479364268791e-06,0.9999999999987996,-1.6921595537317042e-08,1.7491803674151017e-10,9.942469964126118e-15,2.3563085786408306e-08,1.1805064570660428e-05,9.79998645176638
1727705496.1332505,6.022698259573169e-07,-1.2029483921742802e-09,-1.4274793641577688e-06,0.9999999999987996,-1.6419274458131227e-08,1.6980878332373723e-10,8.9604275545133e-15,2.351313439411028e-08,1.180032742255502e-05,9.79998685415159
1727705496.3666117,6.01949565238386e-07,-1.1996321407629256e-09,-1.4274793641022576e-06,0.9999999999988,-1.5772581034121604e-08,1.6334256087495381e-10,5.547994051457217e-15,2.3454347715107222e-08,1.1794210266766666e-05,9.799987372151227
1727705496.3690782,6.017222003300203e-07,-1.4270364463083055e-09,-0.0008226902742862752,0.9999996615901179,-1.5120483025925658e-08,-8.087723744066753e-08,-0.08147116005813779,0.37123676659309535,0.05051552149157448,9.799987684157205
1727705496.3770726,6.014983244044037e-07,-2.3811312555250896e-09,-0.002808676484506667,0.9999960556602429,-1.4805173441659944e-08,-1.7373105289471814e-07,-0.15725401861725413,0.3456797358738067,0.04293731902462531,9.799988057436519
1727705496.6646342,6.01233615140996e-07,-4.408474972595306e-09,-0.006235656768780573,0.9999805581031564,-1.3560272043801282e-08,-2.0851994400124506e-07,-0.17274628911065823,0.003963011106701487,-0.0036669081621067507,9.799988581968915
1727705496.6657884,6.010101505343404e-07,-6.173647089659393e-09,-0.009526431100792432,0.9999546225255026,-1.3969044010508163e-08,-2.7752268321162865e-07,-0.24215648547658186,0.3173225846925338,0.031127522321252248,9.799988879574336
1727705496.6879356,6.008392710326288e-07,-8.54682294271635e-09,-0.013675691019317315,0.9999064833647109,-1.0190770288907786e-08,-3.412842022137259e-07,-0.28512819858111094,0.06526445329763629,1.989436020207119e-05,9.799989125912282
1727705496.7189243,6.00637679124178e-07,-1.1145631547149903e-08,-0.01797499058395391,0.99983843680524,-1.0730937246561115e-08,-3.4615995272125815e-07,-0.28683764829388614,0.0029936112957946108,-0.011310818804772528,9.79998957983542
1727705496.7578895,6.003576906490172e-07,-1.4617336898100437e-08,-0.02371116485554875,0.999718850807982,-1.0334867288829527e-08,-3.460876192365274e-07,-0.2868747713025946,0.0016410393871805742,-0.011510013421214096,9.799989991754986
1727705496.8330066,6.001398786840865e-07,-1.721872110265781e-08,-0.0280128467079358,0.99960756320616,-1.0047522920666764e-08,-3.459569900265607e-07,-0.28687498814656237,0.001633138851088332,-0.011511141773583157,9.799990289401096
1727705496.871259,5.998922860439048e-07,-1.9998705044771972e-08,-0.032970317261402204,0.9994563313018343,-7.7763504580746e-09,-4.1056616164509214e-07,-0.3524255720600321,0.3061904054068475,0.026867711409918157,9.79999062154149
1727705497.087745,5.995291809436201e-07,-2.451418016973886e-08,-0.04084873293142033,0.9991653421819321,-1.1964473835913465e-08,-5.002968945100061e-07,-0.4270774929714352,0.3105178775731644,0.0011058436457548984,9.799990934492525
1727705497.1119401,5.993580011542944e-07,-2.8542974334623653e-08,-0.04770568199022296,0.9988614357885119,-1.044968391156887e-10,-5.56455984587814e-07,-0.4639771904885279,0.06317512379606766,-0.00955762477601771,9.799990937836787
1727705497.1424918,5.990824171612867e-07,-3.275754350514532e-08,-0.05468867858297438,0.9985034543928668,-4.282234088286363e-09,-5.62053546202735e-07,-0.46653023116881776,0.007856012186968356,-0.02979701922024533,9.799991497430478
1727705497.2476525,5.986465429960853e-07,-3.8571067047519726e-08,-0.06460972426876249,0.9979106089873755,1.0081865530983419e-08,-6.213047884668154e-07,-0.5220974579251434,0.1677239432883608,0.018872002971753895,9.799992192045082
1727705497.277612,5.98307971685914e-07,-4.3327170446433224e-08,-0.07251216665020138,0.9973675278889591,-1.7318633771376193e-09,-6.370025506645361e-07,-0.529134220085677,0.015315218064705595,-0.0373609956437061,9.799992078657652
1727705497.3107955,5.979119943260393e-07,-4.811255087057936e-08,-0.08043129280215955,0.9967601552719759,-1.8464860007906174e-09,-6.378387232737799e-07,-0.5295574408471773,0.006130129817959011,-0.039167490648200055,9.79999232827257
1727705497.496116,6.039103313480379e-07,-5.3439611130109766e-08,-0.08823451864763826,0.9960997288016155,6.403840091712715e-07,-6.293234408095745e-07,-0.5145983364732953,-0.09763112533425967,1.7476920362154165,9.799990262590217
1727705497.5131087,6.157626418274732e-07,-6.082261122576269e-08,-0.09811598763229068,0.9951749861057388,6.149791660598142e-07,-6.082610693238482e-07,-0.485324284242786,-0.05966892830521204,1.7550905134708608,9.79999050987308
1727705497.5460224,6.199391672966169e-07,-6.573415657634079e-08,-0.10484076879845827,0.9944890211547635,2.2506038272093567e-07,-5.554693228824059e-07,-0.4297755670452545,-0.24915971387619523,0.6936805096258951,9.79999036675252
1727705497.7899532,6.255737763364395e-07,-7.036379998467614e-08,-0.11090449426271975,0.9938310687193945,5.583423386440613e-07,-5.126768749996886e-07,-0.40091541991171076,-0.01742032857809674,1.6809041300851062,9.799990998189811
1727705497.803656,6.322631313748154e-07,-7.623546412952363e-08,-0.11847884278592397,0.9929565770020876,2.672367048469281e-08,-4.780640048825111e-07,-0.36624766539979725,-0.020870949736210998,0.2655327001813274,9.799987059965488
1727705497.8339498,6.308271413860415e-07,-7.965355773110398e-08,-0.12386245581644051,0.9922993963712343,-7.823564234160915e-08,-4.65564786144108e-07,-0.36065537981986107,0.07569319470902203,-0.013119983606678985,9.79999359077518
1727705497.864157,6.294120931326943e-07,-8.303151138721963e-08,-0.1291802408502966,0.9916211299551136,-3.8454678524641903e-08,-4.5827008273614894e-07,-0.3514307466639169,-0.04098083675350143,0.075922652486803,9.799994561973891
1727705497.9239552,6.302594642349132e-07,-8.772545925412465e-08,-0.13602007309769665,0.9907060813955328,5.085074950303398e-07,-4.408151551821931e-07,-0.33911784106799275,-0.026302827346655226,1.5903804780507187,9.800003626322596
1727705497.9555616,6.306176682638564e-07,-9.097707317343588e-08,-0.1406665691035786,0.9900570268101844,-7.297585875690354e-08,-3.996783558756939e-07,-0.30814502368424,0.046211652481995553,0.013543541900500347,9.799992918954507
1727705498.1835954,6.285666000667824e-07,-9.371003595675318e-08,-0.14514991135418664,0.9894096741155646,-7.850365268296033e-07,-3.872443104223417e-07,-0.2966614788497973,0.015466216063199575,-1.9533420561620447,9.799970839989358
1727705498.1974263,6.189975210623136e-07,-9.514457091963473e-08,-0.14950113729339515,0.9887615536354502,-3.507787981115643e-07,-3.7240570431408677e-07,-0.30040331544074445,0.23907571563064017,-0.7784652420343489,9.800002984751833
1727705498.2385468,6.137080228351449e-07,-9.851181397257997e-08,-0.1562781594549264,0.9877130842896606,-2.2920456268372088e-07,-4.518846724421952e-07,-0.36872233014388245,0.3133587156492982,-0.4714277558924946,9.799995473105776
1727705498.3123662,6.046873052897587e-07,-1.0067905051004133e-07,-0.16191608692667497,0.986804530185172,-7.398071028029068e-07,-4.6964624142117093e-07,-0.37541276477203644,-0.0036006436392154394,-1.9659718362141265,9.799997548646479
1727705498.3444004,5.936214040156458e-07,-1.0230408300924706e-07,-0.16730416511542062,0.9859053282819141,-6.736461472712018e-07,-4.3923710894040493e-07,-0.35784747771101416,-0.048847096200916304,-1.8432648217277374,9.799998373683279
1727705498.3900135,5.833418544741074e-07,-1.0478388750925318e-07,-0.17420208299961,0.9847099239259477,-2.0601212590293774e-07,-4.1834811007882786e-07,-0.35896316977291226,0.18229837087107909,-0.5770872345963358,9.799999665160447
1727705498.5641298,5.816782746125561e-07,-1.0785731742585849e-07,-0.18001424437061841,0.9836640035211845,-6.184722214208976e-08,-4.773400597343479e-07,-0.4135295602995957,0.2780463521242624,-0.18312837912785096,9.799994393683583
1727705498.5797563,5.791074226523242e-07,-1.1123775788010881e-07,-0.18657014827078355,0.9824416419176611,-1.3516838512220296e-07,-5.330156664854256e-07,-0.45958746727957583,0.22336128242071804,-0.411767667893913,9.799996019883766
1727705498.6480594,5.757417737199719e-07,-1.1634889139042214e-07,-0.1962948515369095,0.9805449154729005,-6.62986716084969e-08,-5.97646543203124e-07,-0.5138171251168313,0.14407775839933432,-0.258324779704086,9.799997373597204
1727705498.901535,5.813760951075432e-07,-1.2214469841056817e-07,-0.20379205770699776,0.979014196636185,6.638845332311756e-07,-6.001751870174133e-07,-0.5026484104066766,-0.09777475438445382,1.7506068323699249,9.799993688771695
1727705498.9148014,5.900047791894276e-07,-1.2854330596227687e-07,-0.21095168188951352,0.9774964899720207,6.440925014998658e-07,-5.851846202375695e-07,-0.4806030494793163,-0.06956273024585768,1.756083975288966,9.799993773373442
1727705498.9435523,5.942960196842934e-07,-1.3398795250124718e-07,-0.21803061009685504,0.9759419311928461,2.0490120782577523e-07,-5.971703065384688e-07,-0.4933398027043307,0.2050118293870065,0.6136919150398693,9.799994947426285
1727705498.9871838,5.950245121062564e-07,-1.4066749920728446e-07,-0.22834570445553187,0.9735801144519813,3.45473857522981e-08,-6.700013098880417e-07,-0.5539528778399994,0.3411556988683044,0.16079048141033933,9.799994324460984
1727705499.0707564,5.94432140164164e-07,-1.4596137026259272e-07,-0.23676535072447236,0.9715668626995997,-8.966990009683618e-09,-7.168669629909204e-07,-0.5826482242475106,0.13929877021678683,0.006873075353611766,9.79999536790471
1727705499.112995,5.962554432491792e-07,-1.5209713733717137e-07,-0.2454551770978023,0.969407940980219,1.2748462685005476e-07,-7.456803975580654e-07,-0.6038522310807579,0.1767014032415158,0.3976565139768353,9.799994307988491
1727705499.3740027,5.877183195289591e-07,-1.576511073789719e-07,-0.2570444380687115,0.9663995844667826,-6.968225509785438e-07,-7.317643720625564e-07,-0.5898838992760748,0.007114496909490691,-1.9233470344000732,9.799999129681074
1727705499.3777246,-5.76439526506213e-07,1.6015306781587063e-07,0.26538251758528697,-0.9641432047988185,-6.762007037136923e-07,-6.915353929632348e-07,-0.5687863701228385,-0.032073532682679234,-1.917971329530796,9.79999917945831
1727705499.4085007,-5.704980171436378e-07,1.638470587567087e-07,0.27377370098977916,-0.9617941363129673,-2.5855525681507673e-07,-6.974146005821347e-07,-0.5902964820809798,0.1722074574459771,-0.770318724097779,9.799997809647648
1727705499.4979408,-5.651653799820339e-07,1.698048578954037e-07,0.2857086391186049,-0.9583165309711852,-1.3766368639294688e-07,-7.512787954854516e-07,-0.6434489119596434,0.23742913080746547,-0.46157558577890717,9.799997677028797
1727705499.5322921,-5.615979809011352e-07,1.7480382033755308e-07,0.29537627964092394,-0.9553809990915356,-1.2936358754139776e-07,-8.015954300764839e-07,-0.6886604310233807,0.23375363058278067,-0.46338057388736775,9.799997643124836
1727705499.5617497,-5.583577191329509e-07,1.802832166939932e-07,0.3056434357962152,-0.9521460445511185,-5.2057002947801236e-08,-8.502626562661936e-07,-0.7295818697751377,0.15389844737819264,-0.28340248072606206,9.799998645024404
1727705499.7485847,-5.565986566525947e-07,1.8648786456837854e-07,0.31621898825582156,-0.9486862239255507,1.2183900863155802e-08,-8.744700311600997e-07,-0.7569332277764261,0.31857915934597064,-0.09061218801869479,9.79999708313981
1727705499.7600899,-5.542409702429559e-07,1.954674841160158e-07,0.33154384110151425,-0.9434398133571151,9.731589731919962e-08,-9.745831147423e-07,-0.837360706031789,0.21632861329925154,0.10147971148138327,9.799998899095222
1727705499.7929952,-5.523280928843327e-07,2.0268043106125807e-07,0.34347388131714757,-0.9391622292514684,3.5794577787394983e-08,-9.95900017306135e-07,-0.8462639995411004,0.026412331904218225,-0.09609735307919397,9.799997469717736
1727705500.0360217,-5.500771537959492e-07,2.0984278246285966e-07,0.3552007393910908,-0.9347900484791629,7.963995213428175e-09,-9.783489546442752e-07,-0.8097383529878496,-0.5048099689865165,-0.23460407867942507,9.799997210067424
1727705500.055116,-5.470016091670872e-07,2.1822958757179316e-07,0.3685726272792179,-0.9295989556901124,7.550451637105049e-09,-8.032197351954646e-07,-0.661699153977475,-0.5110510090931676,-0.18187562994688475,9.799997810210641
1727705500.0844865,-5.450511201508707e-07,2.2341964845889772e-07,0.3767528413191284,-0.9263138218539203,7.40221796325878e-09,-6.71912666328644e-07,-0.5506760140491854,-0.5142497924274861,-0.14907294211991104,9.799997843167061
1727705500.115759,-5.434404547134777e-07,2.2767232016829348e-07,0.3836432591720701,-0.9234813748481799,7.982193536913112e-09,-5.743880003117357e-07,-0.49963803700379184,0.32440296283110104,-0.012904636633670434,9.799997832729327
1727705500.176072,-5.411772492213725e-07,2.3347612430207624e-07,0.39386219404143796,-0.9191695012915285,7.481916461872071e-09,-6.77117503973487e-07,-0.5874266824979907,0.31038565951842256,-0.03710388543408531,9.799997864084705
1727705500.2073815,-5.391561487613981e-07,2.38437141196182e-07,0.4025474011192563,-0.9153991423700292,7.155780574181887e-09,-7.551139626034127e-07,-0.6531160480499467,0.31092021164825195,-0.05627348859821884,9.799997951471292
1727705500.40859,-5.372792004795454e-07,2.4411056558455005e-07,0.4120722971549412,-0.911151152069239,1.0299258207344736e-07,-8.306491657499283e-07,-0.7139565739290659,0.241965331649335,0.1806539960475244,9.799999627086043
1727705500.4216056,-5.35854449870711e-07,2.5053422243770853e-07,0.42210294350240807,-0.9065479055660837,3.893495183375857e-08,-8.745547547590146e-07,-0.7409594329379648,0.0579962683496295,-0.02478085862220867,9.799997032260785
1727705500.452918,-5.325169577861145e-07,2.586837511410142e-07,0.43552390135836905,-0.9001771666428977,2.1687206295424267e-08,-8.801922272286635e-07,-0.7431150442109038,0.011997640194762207,-0.07699387864981076,9.799998173783777
1727705500.4845104,-5.299005490106669e-07,2.6476037292064606e-07,0.4455312230209425,-0.8952664013091924,2.0941367777607172e-08,-8.807962034717826e-07,-0.7431639764321618,0.010938134127339582,-0.07730809595498209,9.799998234567799
1727705500.5151825,-5.272057469734089e-07,2.708062451663021e-07,0.45548331386517527,-0.890244320841221,2.026768921172956e-08,-8.81282608241901e-07,-0.743166914639158,0.010874228407762693,-0.07731920466884866,9.799998289840431
1727705500.5624902,-5.232968200992365e-07,2.7877323055411907e-07,0.46895491221214514,-0.8832221070103191,2.4093813487032523e-10,-9.194587650219575e-07,-0.7870004772663239,0.3190386651481871,-0.1016250783248025,9.79999839153559
1727705500.7609117,-5.200301679756394e-07,2.851715761656722e-07,0.47991205958037125,-0.8773165991071721,-6.880349970970664e-11,-9.962660087438214e-07,-0.8512313384291078,0.32025263686731503,-0.12645738159020176,9.799997878863696
1727705500.791399,-5.168398822720871e-07,2.9228301417368135e-07,0.49161144067386015,-0.8708146710972543,1.1547334459385138e-07,-1.0703648203778085e-06,-0.9096190559888346,0.2271421609761076,0.15633707350332982,9.800000136965908
1727705500.8464663,-5.119986200984072e-07,3.020780772873532e-07,0.507515787665568,-0.8616424579080608,2.7517260894455818e-08,-1.094087178172751e-06,-0.9193267837171327,0.021661656885035224,-0.11678546049795022,9.799998552868878
1727705501.0914557,-5.080013733349783e-07,3.0926007728891073e-07,0.519445059603876,-0.8545038502270028,-3.378737588314958e-09,-1.1069578266915286e-06,-0.9414394473135606,0.32495704312178236,-0.16461188984713318,9.799998111747849
1727705501.0974827,-5.034427648162965e-07,3.165506118154055e-07,0.5320163563569562,-0.8467340766547159,-3.209913932014243e-09,-1.1852535158414471e-06,-1.0071470825994906,0.3248006021209664,-0.1949137974673851,9.799998760299934
1727705501.125003,-4.993803606908059e-07,3.2484808524746564e-07,0.5451970554998191,-0.8383079211566429,9.763203960834647e-08,-1.2514637264856897e-06,-1.0547515531798455,0.15391329145877572,0.03839642403112239,9.799998185589162
1727705501.1654189,-4.928507165417118e-07,3.357006300475879e-07,0.5629356724257656,-0.8265007130730109,-6.4384545522616305e-09,-1.279059778484905e-06,-1.0825652640561534,0.33084160571352167,-0.23212264060318888,9.799998122076804
1727705501.2330153,-4.872496449507154e-07,3.438578751374295e-07,0.5768129200696134,-0.8168762790290889,2.2082657078555503e-08,-1.3565540926986673e-06,-1.1468304180175746,0.3089492849626612,-0.1909514391983795,9.799999453361837
1727705501.2635543,-4.822154097632596e-07,3.5305901408645415e-07,0.5910362517013591,-0.8066449957536774,5.0038801845062955e-08,-1.4019112018762145e-06,-1.1725750598908111,0.06767157175237357,-0.15888611261478527,9.799998274290752
1727705501.5352821,-4.768134773445393e-07,3.666520080563092e-07,0.6097844634375197,-0.7925672893514181,6.482584535695971e-07,-1.404493172032095e-06,-1.1668397848335483,-0.09728235675054693,1.484943467101029,9.800009005980732
1727705501.539437,-4.77786537429574e-07,3.808600785166443e-07,0.623390468651051,-0.7819106877352744,6.288373915378584e-07,-1.404066551315439e-06,-1.1449788299543742,-0.03431189705499538,1.4983117718476464,9.799996839890296
1727705501.5588186,-4.782811880186866e-07,3.949211847421318e-07,0.6365657811116696,-0.7712224104091537,6.098770238771801e-07,-1.4032474078458646e-06,-1.1241988016578404,0.02654278409262074,1.5107871155065102,9.799996836200261
1727705501.597455,-4.779204386059674e-07,4.131601066691124e-07,0.6534793468550438,-0.756944346192972,5.044553543918478e-07,-1.3991767935693492e-06,-1.0940732954523478,0.05026978185152862,1.295605492441185,9.799995522454916
1727705501.6297119,-4.7493102753515626e-07,4.2448086892098594e-07,0.665432418665686,-0.7464581007587294,3.1750553608170336e-07,-1.3523372202273569e-06,-1.041167050613942,-0.03387374566200419,0.8222528436800141,9.7999978024484
1727705501.663186,-4.714188725010416e-07,4.348513336399963e-07,0.6766074705851794,-0.7363438943509439,2.734904305534782e-07,-1.292510982835652e-06,-0.9874213546623528,0.00496662989348056,0.7566097446234064,9.799997844422496
1727705501.9066193,-4.6707151165138564e-07,4.439272645713752e-07,0.687092818422372,-0.7265696517691791,5.936149001294939e-08,-1.2390431242188732e-06,-0.9440229928581112,0.1428210772987409,0.22525766412331358,9.799994584322848
1727705501.9478788,-4.645913359503632e-07,4.588692283783594e-07,0.7004553509921543,-0.7136962247805655,2.488869075703188e-07,-1.216406218938535e-06,-0.9097213617785295,0.06182755812086752,0.7928757329421976,9.79999443010527
1727705501.9752166,-4.608272750625803e-07,4.678785473692388e-07,0.7097701204424082,-0.7044333723828948,2.409678241882969e-07,-1.1561748382639482e-06,-0.8588078701032594,0.06995150692218047,0.8144902862410724,9.799997927819305
1727705502.2188776,-4.569099018645776e-07,4.7614229253422657e-07,0.7184205620214289,-0.6956090109137308,1.5080847021268036e-07,-1.092683407853626e-06,-0.804635732962895,0.029424383405280075,0.6001212271691614,9.799996600831498
1727705502.2211602,-4.5084441222757456e-07,4.850909315496163e-07,0.7287980563300035,-0.6847287003545055,7.70525109716334e-08,-9.814650456551247e-07,-0.717505720020883,-0.02284986619479678,0.4368132362592627,9.799998363988813
1727705502.2495081,-4.464827320015091e-07,4.908644968790904e-07,0.7356572896996788,-0.6773539341520667,7.664768037613638e-08,-8.897564663681485e-07,-0.6484834941577701,-0.040501272006271065,0.4651976023640744,9.799998180446924
1727705502.2826254,-4.419535650009878e-07,4.954160830247141e-07,0.7417782284837374,-0.6706452562622712,-8.315873913966032e-08,-8.034563936011697e-07,-0.589861075725737,0.10442937086876389,0.06921230243926241,9.799996117644858
1727705502.3454177,-4.345461812376262e-07,4.990323055728693e-07,0.7494683234852192,-0.6620402042865804,-1.4161249301134042e-07,-7.715745530747404e-07,-0.5732798255296798,0.22866859378981533,-0.07906214356291243,9.79999914186376
1727705502.3758056,-4.293629447162734e-07,5.019541107552922e-07,0.7550639091401777,-0.6556511977519122,2.9617844120438573e-08,-7.547271521309322e-07,-0.5581179950829894,0.09623260929664314,0.3702281396442647,9.80000206512756
1727705502.6013527,-4.240090044217808e-07,5.043589669808348e-07,0.7604480846091571,-0.6493987300679223,-1.340833090839287e-07,-7.332314265145233e-07,-0.5476774429856228,0.21760254808574575,-0.06708398856178868,9.799999044945034
1727705502.6053584,-4.189469170332545e-07,5.064044270726117e-07,0.7651181015593368,-0.6438899678250968,-1.1125350052602739e-08,-6.181268235481221e-07,-0.45152413523823515,-0.17633838918094483,0.23013492226596965,9.800002080146808
1727705502.6297112,-4.153285700701601e-07,5.106997212245191e-07,0.7700994100863381,-0.6379238971728843,-2.9371978432831572e-09,-4.81219608232385e-07,-0.34954518933420003,-0.21304126859233438,0.27570236488405914,9.799997421818803
1727705502.6582766,-4.1254931798421696e-07,5.124427365599039e-07,0.7730749469200736,-0.6343146903896303,-1.0601662440699072e-07,-4.0338028944192477e-07,-0.30307452689196945,0.07158491113393675,0.04080977473856625,9.799997860399598
1727705502.6935942,-4.084908299903876e-07,5.122131970181016e-07,0.7759630344469831,-0.630778383563832,-1.2676987821627313e-07,-3.9948242447221963e-07,-0.30454074150943433,0.14414248047532843,-0.020711023461978374,9.799999754705853
1727705502.7373605,-4.037645412163458e-07,5.126193274079059e-07,0.7796727860915766,-0.6261871498424194,-1.2546263967386196e-07,-3.7265218703929485e-07,-0.28339693535393584,0.07016139616503568,-0.038620979325181465,9.800000273609877
1727705502.9453707,-4.0053853081764866e-07,5.129910444058922e-07,0.782313095769285,-0.6228853989197803,-1.1522385973592808e-07,-3.6620777353476003e-07,-0.2816562846894564,0.13032725091101918,-0.010896237644367073,9.799999417978883
1727705502.9749916,-3.9836135845862406e-07,5.141092874800513e-07,0.7843609825774839,-0.6203046420990744,7.556012693365148e-08,-2.65094974085395e-07,-0.19410448086928947,-0.2326101601549702,0.4706695358987883,9.80000074437705
1727705503.03026,-3.9738750819840714e-07,5.160905065177456e-07,0.7860959985999314,-0.6181044256311002,-8.197253984551055e-08,-1.4987249769873422e-07,-0.1121773751469785,-0.1516456476374936,0.06368987971314255,9.799996003961947
1727705503.3134954,-3.955982678139714e-07,5.153644015514784e-07,0.7870873198011121,-0.6168415931241016,-1.1306535804018171e-07,-1.3157690928618133e-07,-0.10641609408084733,0.04756893632608529,-0.0019204693600464607,9.799999453557616
1727705503.3153832,-3.948040155054615e-07,5.153769381827643e-07,0.7875605941127837,-0.616237219421464,6.155168590439561e-08,-4.228228888379658e-08,-0.028794992723712755,-0.2711977345057916,0.43440431613129227,9.800000332798312
1727705503.3333347,-3.936866467915079e-07,5.140805446126492e-07,0.7877483542266672,-0.6159971837701514,-1.1279913937701842e-07,-1.457849320190949e-08,-0.01854004558343837,-0.0037402803311795563,-0.015089821562994484,9.80000009457972
1727705503.3728864,-3.9235768173645873e-07,5.124443084455167e-07,0.7879726153288106,-0.6157102869787524,-1.0371694331719161e-07,-1.3753065442733423e-08,-0.018174258405748177,0.008886575575888308,-5.504956838082224e-05,9.79999951400346
1727705503.4449902,-3.9171020489762723e-07,5.118017383236898e-07,0.7883220421576801,-0.6152628363942759,-4.878337281530886e-08,-5.29900773354491e-08,-0.052973274421721166,0.16913132307427037,0.16658721369587864,9.79999890849664
1727705503.4738407,-3.90486143819801e-07,5.109106009370613e-07,0.7888435733971121,-0.6145940259306637,-9.915755454058738e-08,-6.557269001033292e-08,-0.05696670785152347,0.03143360008573259,0.00042631679149573174,9.79999952250073
1727705503.7180378,-3.891616242723316e-07,5.10136055562734e-07,0.7895241849991407,-0.6137194483646667,-9.616526665253969e-08,-6.362921909729153e-08,-0.05525637580906988,0.02729723917706113,0.00022685070254611326,9.799999529817024
1727705503.7200165,-3.880594650445658e-07,5.089123360360564e-07,0.7894974708739544,-0.6137538134164382,-6.917636576452617e-08,3.064062581254301e-08,0.028355484936519956,-0.32805294188425177,0.018718895841476478,9.800000716561023
1727705503.7497468,-3.877676890730476e-07,5.077386251294974e-07,0.7891367693482565,-0.6142175178730971,-8.385042059276245e-08,6.361507452127409e-08,0.04212435070870356,-0.0424128896860311,0.01298281728773459,9.799998860116762
1727705503.78883,-3.872875141510976e-07,5.058932334343236e-07,0.7886122113361238,-0.6148908684727256,-8.621811679227876e-08,6.494776843775962e-08,0.042732946247193905,-0.02144135086693021,-0.0002254064022452239,9.799999602997472
1727705503.820356,-3.8061147075209e-07,4.964234635499905e-07,0.7882350357132025,-0.6153742994908179,-7.63554808836317e-07,6.156466937263902e-08,0.039964150354650535,-0.008395572397258143,-1.9212976257466408,9.800002153785869
1727705503.8489292,-3.7410907449851593e-07,4.87254527578762e-07,0.7878823440526544,-0.6158257967394003,-7.40843064221964e-07,5.67886229930101e-08,0.03732447270933717,-0.005507561487495775,-1.9211605948673698,9.800002117869715
1727705503.88205,-3.6777714909078744e-07,4.783762106106223e-07,0.7875530126765672,-0.6162469084901754,-7.188031465367935e-07,5.235371131885452e-08,0.03481141318378634,-0.0029632510783126577,-1.9210267852416836,9.800002083027357
1727705504.1614823,-3.5959408189209477e-07,4.6697341626508553e-07,0.7871483338566078,-0.6167637315102268,-6.904274632162114e-07,4.693466800498425e-08,0.031652859961426597,-6.415232876863114e-05,-1.9208523732570466,9.800002038197606
1727705504.1998482,-3.536471335622037e-07,4.5873522393730466e-07,0.7868692448265556,-0.6171197546228371,-6.698794108821936e-07,4.3217127147383633e-08,0.0294242172256363,0.0017702080935196758,-1.9207238680366912,9.800002005741938
1727705504.2362287,-3.478596622640376e-07,4.5075595903692524e-07,0.7866099135427702,-0.6174502764724552,-6.499402396937622e-07,3.9775190384497304e-08,0.02731226823549868,0.0033379863352330135,-1.9205967918948137,9.80000197427021
1727705504.470327,-3.524578854003946e-07,4.559021961425178e-07,0.7862912875889525,-0.617855979222808,6.670245957382099e-07,3.5309720153219214e-08,0.02496864231231637,0.005555347789377969,1.731538763795636,9.799997542230544
1727705504.480755,-3.587578471204682e-07,4.6342073877529215e-07,0.7860693717694232,-0.6181382877363938,6.471446430511813e-07,3.386631700405706e-08,0.023438894465486117,0.00390840373769881,1.7313148019214413,9.799997522281311
1727705504.512596,-3.648706991560469e-07,4.7071465023673977e-07,0.7858607743086615,-0.618403463284801,6.278567571578426e-07,3.24934279402466e-08,0.02203248155682099,0.002448777259449693,1.7310957004625847,9.799997502939041
1727705504.5718324,-3.7205485365606013e-07,4.7923480999285e-07,0.7855711511649632,-0.6187713361630341,3.820763920514457e-07,3.643650892044888e-08,0.030154318200696494,-0.1372827315267304,1.0992365060434006,9.799993878155535
1727705504.6023972,-3.7341270496021256e-07,4.801038892385381e-07,0.784930750257206,-0.6195835030892037,-4.732655064296488e-08,1.0348490401539386e-07,0.09328916416521228,-0.40377808179061053,-0.10768520821405717,9.799995796505767
1727705504.6349566,-3.7500403181853364e-07,4.802619455526178e-07,0.7837540394601129,-0.6210713369892256,-7.267607746737002e-09,1.7160160363773573e-07,0.13557690934509672,-0.11400253642197646,0.047487624821079655,9.799997074248111
1727705504.859592,-3.7881309597183075e-07,4.828434602679294e-07,0.7824651134079743,-0.6226944244965333,3.102371766152084e-07,1.787476300756149e-07,0.14357308538414093,-0.1809491331763174,0.9336916393300102,9.799992949136891
1727705504.863859,-3.8135467734286664e-07,4.826758957718351e-07,0.7804867038621603,-0.6251723803032263,-3.838093540600104e-08,2.0858917866646275e-07,0.16135785723882706,-0.06944148886042899,0.0005518186931500783,9.799999531888608
1727705504.88807,-3.8295786902084043e-07,4.819882738877644e-07,0.7789076018275671,-0.6271386990250634,-3.724629506830746e-08,2.1812257267167676e-07,0.16893233565484667,-0.07260950635832018,0.005681529928183399,9.799999298596283
1727705504.9339893,-3.842569452339134e-07,4.808677310085749e-07,0.7773101703953086,-0.6291175557871815,-2.6938419101216888e-08,2.1917234939199138e-07,0.16987944000791463,-0.06995484129668873,0.03412022204817777,9.799998043233323
1727705504.97287,-3.864982655383254e-07,4.800005895145968e-07,0.7751344946092362,-0.6317962608836047,2.685784693975029e-07,2.2441182659367114e-07,0.18037040243972052,-0.2113675574035125,0.8290548067145943,9.800004804663981
1727705505.0009975,-3.877276849551136e-07,4.785883159514607e-07,0.773376638711975,-0.6339468232385013,-4.039289438046325e-08,2.3880405635441695e-07,0.1857444393710707,-0.08002219616570362,-0.0021282826545784765,9.799999651050973
1727705505.244964,-3.927000134985271e-07,4.817214016339601e-07,0.7716435527474579,-0.6360552079048601,5.762610602300362e-07,2.3214189093851943e-07,0.17810619157247556,-0.019683952097783695,1.729701617951436,9.79999751341959
1727705505.3018076,-3.9730689773757985e-07,4.831650293752033e-07,0.7690143051410359,-0.6392315687511517,2.9772989984122014e-07,2.8340912549191033e-07,0.22222876315714232,-0.2002817669423228,0.9619088814225396,9.800003037082503
1727705505.3311481,-3.9877722890838913e-07,4.81350444530569e-07,0.7668256898052617,-0.6418554054102013,-5.7652922793048595e-08,2.97168922559579e-07,0.22844963040304558,-0.11291090735842413,-0.003268702735578941,9.799999623649558
1727705505.5746472,-4.0097230268805424e-07,4.804923831976834e-07,0.7648666860204781,-0.6441886001907047,1.3610724415729839e-07,2.488732588521596e-07,0.17876786497533376,0.2299769458402879,0.5825879870809765,9.800000269657854
1727705505.5811417,-4.019539599899609e-07,4.789519930965046e-07,0.7632524669163689,-0.6461003573328883,-5.967071236555764e-08,2.1610250181230433e-07,0.16538019855980346,-0.06997686816958906,0.001613103092157629,9.799999652441489
1727705505.6149132,-4.0329701731253567e-07,4.769904253821077e-07,0.7610331536490166,-0.6487129866486735,-5.940637290781914e-08,2.2352362036608434e-07,0.17199797830632502,-0.08548507581328142,-0.0032693834217362803,9.799999795287047
1727705505.646988,-4.040136785194106e-07,4.751550828878563e-07,0.7593377566063335,-0.6506966815588286,-6.708152735118855e-08,2.2652256769707375e-07,0.177835687881997,-0.1653528689299705,-0.040649298055126626,9.799999692619355
1727705505.7428956,-4.0481801697537903e-07,4.7332662294003155e-07,0.7575801442198334,-0.652742158193776,-5.60163987572231e-08,2.3270002652471187e-07,0.1800255677039985,-0.08962451645802932,-0.0045424511702180925,9.799999844807846
1727705505.7846029,-4.062076710290674e-07,4.7105687957396974e-07,0.755045023350083,-0.6556729464556894,-5.398480938123452e-08,2.514100725851977e-07,0.19511928596206013,-0.09876277324869412,-0.005044580749227763,9.799999832171519
1727705506.0096674,-4.078786633264297e-07,4.7000215848454445e-07,0.753121548083582,-0.6578813979827985,-2.6902072713629336e-08,2.5174184788227696e-07,0.19418730653097774,-0.06664210687512645,0.07565057798433933,9.799996415067357
1727705506.013351,-4.088126454881427e-07,4.681346535695724e-07,0.7512093266784668,-0.6600640480369295,-5.315820998310292e-08,2.487340382274433e-07,0.19336725407526323,-0.09530388738508372,-0.004556084149795374,9.79999984742639
1727705506.0582023,-4.1001730667617855e-07,4.656772651170736e-07,0.7486992309239382,-0.6629098442575116,-5.1244423433331075e-08,2.4288055220480887e-07,0.18936964320225808,-0.09312417832906826,-0.004536014475443978,9.799999862478268
1727705506.3033996,-4.1091114070093546e-07,4.6386966820451907e-07,0.7468312820750721,-0.6650135608494913,-4.9768616805091764e-08,2.3887517878053627e-07,0.18632825520978638,-0.08358026178836082,-0.003182326778174815,9.79999986165068
1727705506.3140976,-4.1179209046024665e-07,4.620952983561623e-07,0.7449719279474964,-0.6670958151343831,-4.835184050484746e-08,2.376075599979151e-07,0.18607964013013373,-0.09215756085340818,-0.004473021973550366,9.799999871069582
1727705506.347712,-4.1268177741100204e-07,4.6033497618830966e-07,0.7430930871087977,-0.6691880631711346,-4.692717685529102e-08,2.397512619486757e-07,0.18842122893160634,-0.1003996193624756,-0.005650649639471575,9.799999879539094
1727705506.385013,-4.138963246915011e-07,4.579973221985324e-07,0.7405759663515115,-0.6719726468109726,-4.4993634951566827e-08,2.3759832510137883e-07,0.18494760477256528,-0.04228857412685832,0.0028314606071477393,9.799999877855077
1727705506.41713,-4.147802965424384e-07,4.562911063178028e-07,0.738721425769995,-0.6740108716541341,-4.384161575354328e-08,2.32881899094188e-07,0.18356347017344718,-0.09004157763697618,-0.004217789083430583,9.799999883095776
1727705506.4503741,-4.156709496987804e-07,4.5459804217450435e-07,0.7368476509660115,-0.6760588282579346,-4.254475551783736e-08,2.344541559521666e-07,0.18523233152969257,-0.09322021957522249,-0.00465563053880361,9.799999888427354
1727705506.7137313,-4.1683750847552586e-07,4.523926263133993e-07,0.7344681719682418,-0.6786431347661676,-4.0985602654708696e-08,2.098137377689589e-07,0.16367818078376464,-0.0178271115897118,0.006008225767990514,9.799999853399397
1727705506.7186804,-4.1758014068953775e-07,4.5087595441889216e-07,0.7328159589116479,-0.6804269030278154,-4.0035199318031935e-08,2.0399372947288557e-07,0.16190330767996608,-0.07905892529806843,-0.003189050273952618,9.799999893281944
1727705506.7468562,-4.183577956997398e-07,4.4934445639247514e-07,0.7310769123190592,-0.6822950595407045,-3.876757832088635e-08,2.1494052353579785e-07,0.17113814062733337,-0.09211281757254686,-0.004878069008608985,9.799999902767604
1727705506.7964857,-4.194437545195086e-07,4.472890016864017e-07,0.7287459699915538,-0.684784134761235,-3.72369403181542e-08,2.1305031424066704e-07,0.1695065313081073,-0.07883003104996732,-0.0029238148039155447,9.799999898675336
1727705506.8734288,-4.202527688597465e-07,4.457719905310812e-07,0.7270038620717533,-0.6866333698069004,-3.6171624267838634e-08,2.1225731731026346e-07,0.16935693907340102,-0.08399091461596962,-0.003703802034970283,9.799999905027924
1727705506.9033926,-4.20741662800867e-07,4.440554907643379e-07,0.7254142222254882,-0.6883125788423567,-3.585454695563616e-08,1.9092763132394385e-07,0.15233994521122823,-0.06226252122971681,-0.004674655149919612,9.800000063084022
1727705507.1220157,-4.213641405898761e-07,4.4259701300349303e-07,0.7239100716906796,-0.6898943456098344,-5.707179811010382e-08,1.785019265025974e-07,0.1324897374947596,0.19762593793288052,-0.030075073710973586,9.799999505660283
1727705507.1354668,-4.2210657528014723e-07,4.410345660243295e-07,0.7221622707593413,-0.6917236837721688,-3.0958469891064875e-08,1.572296436948602e-07,0.12684485256583652,-0.06657176810502415,0.0013032152719853255,9.79999973698317
1727705507.1638618,-4.2264241039870983e-07,4.398613629150385e-07,0.7208438508761671,-0.693097498663533,-3.1425160105308916e-08,1.5736300476416673e-07,0.1269513977750937,-0.06290811301088549,-0.0020755139674323787,9.799999914705472
1727705507.439441,-4.2346290663909193e-07,4.38986398203059e-07,0.7195347515482461,-0.6944564358647933,4.9817190121286644e-08,1.551355740669754e-07,0.12347656439301707,-0.013708940220106467,0.22734867961871183,9.80000122590762
1727705507.442176,-4.241842619441911e-07,4.3752650306006797e-07,0.7178479713760026,-0.6961998922658535,-3.023060746686445e-08,1.4861237565432606e-07,0.11996770088352399,-0.05302215146562987,-0.0007629893503249118,9.799999913126852
1727705507.4717357,-4.2468082858343815e-07,4.364229799978881e-07,0.7165957317737929,-0.6974887505925893,-2.939372605398783e-08,1.478712068574796e-07,0.11978107219281803,-0.05946064061341092,-0.0018196167216808059,9.799999923302337
1727705507.4971995,-4.2506573965422795e-07,4.351997044422501e-07,0.7154528421853034,-0.6986610269713067,-6.349389601863474e-08,1.296964543476308e-07,0.08788493464965154,0.3866435470581328,-0.036905822895212555,9.79999932045105
1727705507.5399148,-4.254453212290101e-07,4.342991429989825e-07,0.7144974429214539,-0.6996380521800782,-2.7684284882683577e-08,8.060169605423709e-08,0.0663752767730104,-0.028535831876904727,0.00037951400583728715,9.799999913617851
1727705507.5901399,-4.255156503443436e-07,4.336615442602893e-07,0.713986608062094,-0.7001593557952479,-2.6996457715827096e-08,5.618971484639228e-08,0.046544943325455924,-0.007923326178943915,0.0020332943841838143,9.799999919945378
1727705507.8374724,-4.2438794634197856e-07,4.3192646349063643e-07,0.7135622855592064,-0.7005917960033181,-3.524085439397236e-07,4.5534528812509643e-08,0.028799223518182003,0.21878317258560845,-0.8711234442001368,9.799994576692697
1727705507.8422213,-4.237598542181854e-07,4.3107777738764505e-07,0.7134185588311914,-0.7007381536029421,-2.3357238861671396e-08,1.2485819632645749e-08,0.011872748294792578,0.007280511983408962,-0.004915114492297421,9.800000233878771
1727705507.8807695,-4.2353770500914333e-07,4.307221387053013e-07,0.713256871551758,-0.7009027287604421,-2.0067145312109853e-08,1.1440616446754202e-08,0.011502061102979624,-0.005519541503731049,7.770586957802707e-06,9.799999934844395
1727705507.91388,-4.232246908242573e-07,4.303053137600367e-07,0.7131455257680628,-0.7010160191298261,-6.381274232112848e-08,1.0038647900460976e-08,0.0087690998837893,0.032530022633608956,-0.11770184165443473,9.799999207909453
1727705508.0081446,-4.2303036641297483e-07,4.300544207632916e-07,0.7130629855093497,-0.7010999776751736,-1.850903541917619e-08,6.909458854035771e-09,0.007739459845067009,-0.002961614374320739,-0.00021914301010462377,9.799999953563772
1727705508.052313,-4.223997608490129e-07,4.293810739753516e-07,0.7130187316174983,-0.7011449838387286,-3.0673778299569e-08,-4.265993612708493e-09,-0.002523431477768783,0.03132102186759073,-0.034561649027510535,9.800001683894207
1727705508.2539997,-4.20655040225248e-07,4.276963392518675e-07,0.7130933623470609,-0.7010690811726069,-4.5014357128773753e-07,-1.260316676564164e-08,-0.014829371781395666,0.16202456133397755,-1.1814994325668664,9.799992818857104
1727705508.2626083,-4.195229859555836e-07,4.2695638820446786e-07,0.713451674661732,-0.7007044369218821,-1.292138015302573e-08,-4.663594983853102e-08,-0.03637539073937648,0.03354424960059531,-0.00885899227435018,9.800000436569597
1727705508.3058255,-4.185015631753793e-07,4.267009277652298e-07,0.7140318883463711,-0.7001131782963081,-9.598292534276098e-09,-5.6063733455110335e-08,-0.04373316394752066,0.025556263114242826,-0.006439137912560976,9.800000256981125
1727705508.59244,-4.164112445791354e-07,4.252074507334617e-07,0.7145166250823193,-0.6996184620781659,-4.916117885639601e-07,-5.962534561978211e-08,-0.05080284683108339,0.11682393531119309,-1.3309149758044725,9.799991980364398
1727705508.5937166,-4.1612674531634786e-07,4.2565932645861297e-07,0.7150575061479741,-0.699065635617347,-1.6481960295073702e-09,-6.554724795332809e-08,-0.051651598064674724,0.023801717509024108,0.0012085738519984266,9.799999880840799
1727705508.6185856,-4.157316120396392e-07,4.2600093857941203e-07,0.7155990814619031,-0.6985112415777759,-2.12699308086404e-09,-6.547774761012851e-08,-0.05166998256130709,0.02316491243825738,-0.0003564029681292332,9.799999949005167
1727705508.668219,-4.152903000034006e-07,4.2653911264624677e-07,0.7163312753566554,-0.6977603485048094,2.1690663279187172e-08,-6.69873203695011e-08,-0.05474583001143394,0.06623499415535418,0.07128870474437643,9.800000338091182
1727705508.698474,-4.1456117418191356e-07,4.2639913114015767e-07,0.7166783832363377,-0.697403824911647,-3.1824181420041265e-09,-4.024624450181503e-08,-0.030599546502519517,-0.005094515039973289,-0.008414564319623462,9.800000211346498
1727705508.7342055,-4.137432354649911e-07,4.259245841202218e-07,0.7168315022054594,-0.6972464395359159,-2.1871836225427403e-08,-1.0483421852976886e-08,-0.0039948593669089354,-0.07573728041403514,-0.07282793553394609,9.800002761138558
1727705508.9912577,-4.1206102636385927e-07,4.242891924353235e-07,0.7168245135420273,-0.6972536244329506,-4.674498889722247e-07,1.994454638190636e-09,0.008211504497652934,-0.14105799692712187,-1.3169996080582886,9.799992269762416
1727705508.9934673,-4.111428803360207e-07,4.231423412652398e-07,0.7165756162875638,-0.6975094165255047,2.9747822509543987e-09,2.895625529930083e-08,0.02565316461612226,-0.024275392888238167,-0.016959016144656537,9.800000633121218
1727705509.0210361,-4.111254769683715e-07,4.22808712983301e-07,0.7163065386964078,-0.6977857426319513,-6.594754104874204e-08,2.97483117871062e-08,0.025199419051104666,0.00025850114023122763,-0.2040554661998975,9.799998738067101
1727705509.0680366,-4.1062317562924763e-07,4.2188848894254004e-07,0.7159481807956027,-0.6981534232639128,-2.162596270494909e-07,3.0556665022585435e-08,0.02790058925797506,-0.05306027942549532,-0.6294802560919096,9.7999962629695
1727705509.1309452,-4.107846067924627e-07,4.21703912527846e-07,0.7156452740185826,-0.6984639158714795,1.0398370987881155e-08,3.3673808102024e-08,0.029039677369299577,-0.012721390542239565,-0.001968792046597008,9.800000037647271
1727705509.163629,-4.1039110435753583e-07,4.209048188177466e-07,0.7152631810900466,-0.6988551937108298,-1.2653300345296029e-08,4.693668872605037e-08,0.04151776550270376,-0.053698499744322996,-0.07520059361533372,9.800003112081388
1727705509.3761723,-4.1077320003801334e-07,4.2076544875488707e-07,0.7148182164197354,-0.6993103155782578,1.2390520403382592e-08,4.998864400647402e-08,0.04254231482600413,-0.017874322038325667,-0.0005305809453346233,9.799999969931926
1727705509.3824458,-4.095741093668648e-07,4.1892040155103445e-07,0.7143283968999898,-0.699810646805225,1.0900265708838276e-08,4.069241305465797e-08,0.03510240764731008,-0.016592213361945055,-0.016722591151350448,9.800000689937827
1727705509.420514,-4.0996097884211274e-07,4.188799140214188e-07,0.713959053622295,-0.7001874532940542,1.6288258088747532e-08,4.0955039168336014e-08,0.03518432490631777,-0.013711255541568384,-0.00019840427086282344,9.799999964403757
1727705509.7288778,-4.103465290777646e-07,4.188370131830222e-07,0.7135894032732603,-0.700564175172959,1.5822873735253594e-08,4.098550927574968e-08,0.035186091169498494,-0.013649507364983295,-0.00014407822677739193,9.799999963478314
1727705509.736632,-4.1119220104073885e-07,4.190001513534784e-07,0.7129632055849678,-0.7012014457213148,1.4629755094160749e-08,5.353173794110422e-08,0.04561360720544523,-0.020004757718677525,-3.174435110442915e-05,9.799999941693647
1727705509.757758,-4.1162838920887416e-07,4.1886826108084674e-07,0.7124826958621344,-0.7016896807682724,1.4009034213465727e-08,5.373316823737804e-08,0.045675061160297445,-0.017859599257162045,-0.00025971605492277467,9.799999966203975
1727705509.788051,-4.120602426400932e-07,4.187312231598027e-07,0.7120017704225265,-0.7021776690516742,1.3594012666839555e-08,5.375334373984759e-08,0.045676384635284215,-0.01781338595321452,-0.0002543005667898209,9.799999967261293
1727705509.8278549,-4.1262937902217303e-07,4.185412047415835e-07,0.7113600142788803,-0.7028278096979415,1.3060290723442134e-08,5.377437856839817e-08,0.04567641359182282,-0.01781237484069301,-0.0002541477133321135,9.799999968561552
1727705509.8935091,-4.1128915992580367e-07,4.1661224679680677e-07,0.7108872371796827,-0.7033060045347934,-4.535589446801538e-08,5.210361996148487e-08,0.04425471401013125,-0.012787620995900001,-0.17274666904994987,9.800007762719453
1727705510.1469004,-4.1171268603536604e-07,4.164886276372495e-07,0.7104212796459022,-0.7037766729765458,1.7129028999251282e-08,5.1681906412474865e-08,0.04414154356378539,-0.016497435362378642,-0.0007086457933588779,9.799999991174294
1727705510.1514754,-4.0905606337866544e-07,4.131519868300232e-07,0.709731848042021,-0.7044719326378587,-7.957386517377603e-08,8.591571188057889e-08,0.0800147259461543,-0.1940690067871374,-0.31376362873545677,9.800002700393659
1727705510.1693614,-4.1005459547612854e-07,4.127574134588168e-07,0.7085439523748226,-0.7056666830400359,2.522127957314003e-08,9.956010442384478e-08,0.0846591421231115,-0.030549719336280808,-0.00119239609622577,9.799999976246957
1727705510.2029293,-4.1058459769691696e-07,4.1222063567670785e-07,0.7076497201397774,-0.7065634250269088,2.3949990253440754e-08,9.926577904820933e-08,0.08440026942893201,-0.02910036176562074,-0.004533622968268673,9.80000013496342
1727705510.2894547,-4.1137796408346334e-07,4.1195019699337954e-07,0.7067546925140966,-0.7074586946309768,2.4523646760211516e-08,9.927806553546138e-08,0.08439484039527556,-0.029282345669522085,-0.0009347081181270363,9.799999972589283
1727705510.3275797,-4.124303585097847e-07,4.1158177841722183e-07,0.7055694130116803,-0.7086408141096682,2.5105712743755776e-08,9.790235579100917e-08,0.08161686386947596,0.009605460875587243,0.008738240669634202,9.799999996089996
1727705510.5691514,-4.131848597308731e-07,4.1131429897498603e-07,0.7047112890220533,-0.709494185405727,2.282357275771254e-08,9.48145797486414e-08,0.08056947200118886,-0.027152818758355575,-0.0007083059974529054,9.799999972992229
1727705510.571269,-4.0968720297325443e-07,4.068191853424448e-07,0.7038167576207718,-0.7103815676746198,-3.084163435363112e-08,1.0073214860313633e-07,0.08757576329328047,-0.05417682518421481,-0.18331721222255254,9.800008020620895
1727705510.5885606,-4.1085173015394065e-07,4.065179137151686e-07,0.7025618954108763,-0.7116226409525928,3.301423195077573e-08,1.0285194361050598e-07,0.08831256774809818,-0.027801243757530503,-0.0011155603378601394,9.799999976977857
1727705510.8794916,-4.117429699928852e-07,4.0630465649286733e-07,0.70161855931292,-0.7125527329449574,3.206037471379798e-08,1.0292773753737388e-07,0.0883169112008131,-0.02764810201828996,-0.0010224965664476593,9.799999974525639
1727705510.881672,-4.1029386680741605e-07,4.038566433575103e-07,0.7007768361692694,-0.7133805617538632,2.5923195285990377e-08,8.998931881851958e-08,0.07747219627323451,-0.013876988894128249,-0.03139060131879807,9.800001406723764
1727705510.8950865,-4.107258274327479e-07,4.033273464076445e-07,0.6999353328448141,-0.7142062236042807,3.5505181547249333e-08,9.09098293262841e-08,0.07872888156222387,-0.02395723268432506,-0.006884800096487177,9.800000241826412
1727705510.9386394,-4.1188810786673756e-07,4.031863824504188e-07,0.6988095320921517,-0.7153077923920692,3.619081636041363e-08,9.109038753562571e-08,0.07875656638343889,-0.02296676595058685,-0.000814721570342309,9.799999975503729
1727705510.9693093,-4.1218802220909465e-07,4.025289027560548e-07,0.6979769246468658,-0.7161202501397176,3.3946917660682936e-08,8.948918607054461e-08,0.07741281424824072,-0.021207118722280708,-0.008129821808527579,9.800000312900629
1727705511.0100434,-4.1279860192517443e-07,4.0218552066144573e-07,0.6971349719321623,-0.7169399074600402,-3.21010675089885e-08,9.096079341371773e-08,0.0802307120615066,-0.06234653153492747,-0.19394374274455656,9.799998861872384
1727705511.2861173,-4.139216256310065e-07,4.0196631038177707e-07,0.6959694154074284,-0.718071425985681,3.495783675548246e-08,9.413464126599398e-08,0.08132128210327365,-0.023403424862738522,-0.0009762487561559407,9.799999980931597
1727705511.289609,-4.073778907017664e-07,3.946552324133553e-07,0.6951323263401645,-0.7188818045246305,-6.458524914568365e-07,8.844845030793278e-08,0.07587941061827218,0.002820554395862328,-1.9199509301991664,9.800002290532616
1727705511.3082397,-4.009911942884043e-07,3.875999136665418e-07,0.6943510381362576,-0.7196364608875722,-6.266139038711499e-07,8.069541192426768e-08,0.07071468397896485,0.007103344264172551,-1.9197794868679499,9.800002250567445
1727705511.3566098,-3.927171962574015e-07,3.7857276289453307e-07,0.6933913571301988,-0.7205611881421614,-6.018460770031415e-07,7.127725931646336e-08,0.06424653535605282,0.011871837732845185,-1.9195738958660846,9.800002199143353
1727705511.423389,-4.0078554359871694e-07,3.8564508257459133e-07,0.692727405156139,-0.7211995161848996,7.073812470665165e-07,6.568883244782672e-08,0.06001942291151224,0.013750768801750607,1.7325004960566306,9.79999791705063
1727705511.4584613,-4.0861509918745863e-07,3.9250496606652874e-07,0.6921061410375866,-0.7217957394843357,6.863136225842232e-07,6.269897140668316e-08,0.056134084752401454,0.009664428367148406,1.7322406862178543,9.799997885919861
1727705511.4937472,-4.1560349578102813e-07,3.9857891507883213e-07,0.6914971899196874,-0.7223791499848566,4.976771060385246e-07,6.369231218663998e-08,0.06003580768009222,-0.09911281925184547,1.251308507621532,9.799995086097782
1727705511.7003884,-4.0968917213796025e-07,3.91885515447398e-07,0.6905406360868411,-0.723293598694513,-6.453046829457437e-07,7.415871842555261e-08,0.06385395129259812,0.004879760940333603,-1.9199439379947496,9.800002292442365
1727705511.7166462,-4.0319165673844547e-07,3.8495209542995683e-07,0.689879669952913,-0.7239240574710505,-6.260813035447581e-07,6.758050191142237e-08,0.05944244516159607,0.00829706683494863,-1.9197984783904267,9.800002252445701
1727705511.771818,-3.9685848292050286e-07,3.782553359211971e-07,0.6892643693823156,-0.7245099233962902,-6.074273503032732e-07,6.151276615656827e-08,0.05526521138087485,0.011202490527941825,-1.9196630637235352,9.800002213647005
1727705512.0185695,-3.8992644789892417e-07,3.708660090837522e-07,0.6885667228109028,-0.725172991938588,-2.3698863514412912e-07,4.729255204754998e-08,0.034650476183925825,0.23130527705596254,-0.9295204500008647,9.800007955599622
1727705512.039264,-3.900908340525343e-07,3.7083426037756524e-07,0.6885011032317626,-0.725235293438175,1.0241075566932955e-07,1.164119735752244e-09,0.0010285025742651456,0.03747543813576432,-0.023812505829393017,9.800001259544596
1727705512.073446,-3.912747107442517e-07,3.719872577899987e-07,0.6884997014220331,-0.7252366242416883,1.0959192732595132e-07,-1.620556773697119e-09,2.1979182284990878e-05,0.0008011252517132693,4.439844909485956e-05,9.799999970206224
1727705512.112465,-3.928028167420172e-07,3.7348307406787965e-07,0.6884996709892789,-0.7252366531328658,1.0530068780739858e-07,-1.6157852753601493e-09,1.3037175147553168e-07,4.760727632128915e-06,1.1303473019690339e-05,9.799999968271841
1727705512.1651866,-3.9390921796777646e-07,3.745661888485976e-07,0.6884996708115665,-0.725236653301575,1.0217307283593239e-07,-1.5678691059345258e-09,2.7864003365261343e-09,1.1065224389089076e-07,1.0694278265381809e-05,9.799999969201483
1727705512.1998765,-3.9498275976944977e-07,3.756171375873526e-07,0.6884996708077693,-0.7252366533051787,9.91383959704367e-08,-1.5215188229689012e-09,5.939170644250101e-11,1.1685089807986042e-08,1.0708706302022441e-05,9.799999970110992
1727705512.4182072,-3.960244177141478e-07,3.766368770578923e-07,0.6884996708076894,-0.7252366533052537,9.619477106670578e-08,-1.4763794362676885e-09,1.1075191087330783e-12,9.987056636698978e-09,1.0736200068700453e-05,9.799999971029104
1727705512.432053,-3.973653256895039e-07,3.779495724366438e-07,0.6884996708076893,-0.7252366533052524,9.240331893755894e-08,-1.4184117256347739e-09,-1.4911196922360663e-13,1.0488592225117786e-08,1.0772049502898218e-05,9.799999972135165
1727705512.463452,-3.9833620900895755e-07,3.7890003240706037e-07,0.6884996708076905,-0.72523665330525,8.965895364029752e-08,-1.3764570218438832e-09,-1.514518732095284e-13,1.0885976546548173e-08,1.0797958631346631e-05,9.799999972980123
1727705512.5493097,-3.9927825441906307e-07,3.798222599225693e-07,0.6884996708076919,-0.7252366533052478,8.699591263325017e-08,-1.3354017090705254e-09,-1.5096350572293754e-13,1.1276907725555878e-08,1.082311798040526e-05,9.799999973785065
1727705512.5925193,-4.0050210348586977e-07,3.810001972384875e-07,0.6886005257628546,-0.7251408938398208,8.390063506520003e-08,-1.3770170442248235e-08,-0.027814813845423576,0.389467462582839,0.05406135217964166,9.799999957601768
1727705512.6209445,-4.010942992469877e-07,3.8216689585902577e-07,0.6894838946619699,-0.7243010140828566,8.133089512269336e-08,-1.0365939711753471e-07,-0.1073439731326634,0.3624865539317879,0.048121689171766506,9.79999992053824
1727705512.8091362,-4.012040339855738e-07,3.8378394947565664e-07,0.6911883405070761,-0.7226746695068023,7.888694848645068e-08,-1.8763035063784005e-07,-0.18132039153429874,0.33760762256014654,0.039833620801498396,9.799999930514852
1727705512.8323781,-4.0081155860989717e-07,3.864822534226719e-07,0.6941014973093278,-0.7198771502365103,7.68778457879688e-08,-2.2919914457297653e-07,-0.20398598298654183,0.005757074878448125,-0.005085811892965439,9.799999979962607
1727705512.8685033,-4.0041376597430036e-07,3.8851902729308563e-07,0.6963021914603852,-0.7177487430620508,7.45672826250121e-08,-2.2997197297461262e-07,-0.2041183835877158,0.0009326829796699997,-0.005807724380903772,9.799999984129556
1727705513.137689,-4.046708131078964e-07,3.950930599807195e-07,0.6984280144574491,-0.7156803117458976,7.229788328784166e-07,-2.224213765397393e-07,-0.1914133493448419,-0.08543730457082926,1.804977471118251,9.799997807026806
1727705513.1433,-4.0969652328513507e-07,4.023063199595136e-07,0.7004313030493738,-0.7137198257777532,3.712860513853696e-07,-2.164869698012467e-07,-0.19133535037173205,0.13761828171668522,0.9173581569999057,9.799992972900784
1727705513.178617,-4.0924370364009773e-07,4.0521920487088666e-07,0.7033847270159472,-0.7108093456056761,3.869049111451876e-08,-2.437424648874158e-07,-0.2089120372493565,0.022478842757590684,-0.004271213055738988,9.799999934910916
1727705513.2089396,-4.068930360941073e-07,4.0549080891657354e-07,0.7056377582946712,-0.7085727584860577,-3.708891993463987e-07,-2.4769524415923423e-07,-0.21693505883719735,0.1312747541076508,-1.1223074475415382,9.79999323682583
1727705513.238771,-4.046446625135524e-07,4.0611806637465756e-07,0.708217907673368,-0.705993905958421,2.63342941672017e-08,-2.874488086391629e-07,-0.2499777625390655,0.0680147985840231,-0.05053026994361899,9.800002181434676
1727705513.2824633,-4.019807763941199e-07,4.076957862502055e-07,0.711872622034567,-0.7023086002586774,4.505437784602638e-08,-3.011534700175492e-07,-0.26045162951813733,0.017870630947397353,-0.01134826063118414,9.800000094930217
1727705513.521458,-4.0077620474136115e-07,4.0979368917227867e-07,0.7148424267228944,-0.699285567530601,4.2315926854827076e-08,-3.3782264213945947e-07,-0.30453863943973686,0.3256814988403184,0.021921564088817902,9.799999959583637
1727705513.5365012,-3.972291401755549e-07,4.1020771812032214e-07,0.7183521706492384,-0.6956796381404312,-6.190818002981128e-07,-3.9408711510955823e-07,-0.3362655318999844,-0.07562114614766564,-1.8679509558913998,9.799987083830441
1727705513.5777855,-3.914161724831406e-07,4.0987749860856055e-07,0.7232531339137694,-0.6905830176623154,-9.826101693605116e-08,-4.171381665788198e-07,-0.37366523808223195,0.20987184517027288,-0.42563910639760383,9.800000824041394
1727705513.6454127,-3.8855654703102825e-07,4.1168784291316754e-07,0.7273699470116358,-0.6862455538536986,2.986088075220982e-08,-4.593400432889424e-07,-0.406428941974151,0.0755377281031396,-0.10212610817473268,9.800002046819523
1727705513.6775596,-3.865927790109097e-07,4.147161466769506e-07,0.7315668792234389,-0.6817696834143895,6.017988552413329e-08,-4.665429182440819e-07,-0.40951716356738904,0.0076278924376395945,-0.02422577308640376,9.800000039501368
1727705513.70829,-3.8457714835607507e-07,4.1779562411559454e-07,0.7359280891764887,-0.6770597075300816,6.440975350203042e-08,-4.978458604343801e-07,-0.4426099599976056,0.1584489877863462,0.007032547568506777,9.800000182207528
1727705513.8958416,-3.8158696969681306e-07,4.220126416152525e-07,0.7415955219552847,-0.670847286508297,5.0074179676991e-08,-4.5256528454129617e-07,-0.37463196070931787,-0.5153192076174786,-0.10843781350393367,9.800000110120635
1727705513.9016476,-3.798837478714373e-07,4.2453778057961444e-07,0.7446131975611804,-0.6674962067438213,4.851928353067828e-08,-3.2595136699018655e-07,-0.2636419786137183,-0.5167685513261983,-0.09079711474441592,9.80000009071498
1727705513.93767,-3.7886931790852136e-07,4.2640469866941665e-07,0.7465181548679026,-0.6653650460103061,4.715985556863244e-08,-2.005542990211625e-07,-0.1547720773179175,-0.4966650110723177,-0.07614851215929806,9.800000075883336
1727705514.1955388,-3.7855277234440816e-07,4.2792429100292193e-07,0.7474525590436568,-0.6643151902363532,4.559466448116546e-08,-4.541785500651439e-08,-0.021217461913668516,-0.4504034123539475,-0.06294237342969028,9.800000061305893
1727705514.20476,-3.790160771995472e-07,4.285985764563386e-07,0.7474803415147182,-0.6642839295427165,4.483317589893807e-08,-1.9408734903309196e-09,-0.0005874649936526555,-0.01701713849019934,-0.0011079530631680913,9.799999936526302
1727705514.2341478,-3.794504053281585e-07,4.2908685274897925e-07,0.7474810749958646,-0.664283104197825,4.3113160372854905e-08,1.514157795242112e-10,-1.2556359820186538e-05,-0.0004576566232248451,-5.146081810921466e-05,9.79999998735552
1727705514.2752469,-3.8002130048622273e-07,4.2970659018091583e-07,0.7475734688890433,-0.6641791238911936,4.16881696573106e-08,-1.3479897691997902e-08,-0.027815082345210837,0.38946741682199176,0.05394521238454136,9.799999967472049
1727705514.323769,-3.800975408613461e-07,4.3045736787737095e-07,0.7483824898241399,-0.6632674037854501,4.024610119632865e-08,-1.0662993402394231e-07,-0.10734424100258888,0.3624863122489206,0.04801367556795977,9.799999930696398
1727705514.3578606,-3.7966377696959595e-07,4.316612026821201e-07,0.7499300191158399,-0.6615171701691389,4.334934434555947e-08,-1.9151692613139527e-07,-0.17739978271793586,0.2826676206399675,0.04474402224365249,9.800000017630671
1727705514.6041512,-3.7966804257878624e-07,4.340509685388819e-07,0.7517947312841673,-0.6593972111049865,2.799960386594692e-07,-2.197996478822798e-07,-0.19713883592311568,0.17635053979421222,0.6878803673567532,9.80000396980422
1727705514.6110334,-3.842452690162591e-07,4.4271768389374903e-07,0.7543600845035283,-0.6564608616722599,1.9998678811092879e-07,-2.3737500073165625e-07,-0.20964650948202682,0.22169175332940774,0.5249479290927082,9.799996873345467
1727705514.6322322,-3.856184781389034e-07,4.47372198200907e-07,0.7566440225689768,-0.653827059022712,5.545849758197509e-07,-2.8084327214773417e-07,-0.23122482156108123,-0.11533071519608007,1.4728919552396122,9.800006102784364
1727705514.7163587,-3.8639774201914907e-07,4.5121576023071977e-07,0.7584982573784895,-0.6516750674634114,1.658961991251057e-07,-2.155507753509437e-07,-0.16977655920281365,-0.23573474187865245,0.4137799428221081,9.79999822220997
1727705514.7582397,-3.849739701855174e-07,4.526296257475553e-07,0.760625001423105,-0.6491915027245417,5.060788017309648e-10,-1.9535045406234752e-07,-0.16286372024869977,0.015163002228225322,-0.0037105074695986894,9.799999993675765
1727705514.7896035,-3.8689035543217814e-07,4.5716227226994944e-07,0.7621278512318201,-0.6474265505649345,3.13990319119191e-07,-1.828289948255085e-07,-0.14178529796531636,-0.22271837596266747,0.8508789852385648,9.799992849597515
1727705514.9894478,-3.8933393832183514e-07,4.617801758109856e-07,0.7631533282463963,-0.6462174537925166,6.103974009239778e-07,-1.197881132354686e-07,-0.09699060140798269,-0.01915925323616069,1.7238507294199181,9.800006162409197
1727705515.0035477,-3.961189843961631e-07,4.7162922962520296e-07,0.7643344008943089,-0.644820070724507,5.851659684218362e-07,-1.1154214257976922e-07,-0.08832800584554981,-0.009890412680280715,1.7214808812986455,9.799997737182725
1727705515.0337174,-3.954325300016938e-07,4.7211965607896596e-07,0.7651957994417162,-0.6437976300953376,-4.178297332526191e-08,-1.1122924481639964e-07,-0.0892254935176023,0.021112381836165234,0.004587414207172179,9.799999755274978
1727705515.29437,-3.9637769477309333e-07,4.745629398698352e-07,0.7660503311075756,-0.6427805925894087,5.813754789001584e-07,-1.1060508150712088e-07,-0.08719169415435134,-0.008466803805600524,1.7245601748611243,9.800010174760606
1727705515.2963345,-3.997675651814157e-07,4.798852878292909e-07,0.7668577023659481,-0.641817158014359,1.0560822701883877e-07,-1.0530935676317364e-07,-0.0829543345874922,0.019171414947386438,0.45704321976495854,9.799990273431728
1727705515.333332,-3.9826875676244466e-07,4.797490924253354e-07,0.7679202208772644,-0.6405454974999235,-5.92927286517617e-08,-1.0473101623522385e-07,-0.08284681725075958,0.023652510059122313,-0.0007606494965639116,9.80000000225925
1727705515.3624778,-3.971006720959275e-07,4.795886538004545e-07,0.7687156299420344,-0.639590713098958,-5.760652615281659e-08,-1.045425765620907e-07,-0.08284621022693736,0.023674224790085373,-0.0009378645739189769,9.800000010110315
1727705515.4050498,-3.96417416588869e-07,4.799543101322447e-07,0.7694532809194476,-0.638703098851031,-5.4897172052574085e-08,-9.635008409924e-08,-0.07623949012364248,0.01691458487587107,0.005129520467441809,9.799999711369843
1727705515.448254,-3.9056754762446766e-07,4.7439200390872364e-07,0.7704092200846961,-0.6375497106956544,-7.417630116209941e-07,-9.137842736547494e-08,-0.07288499080724156,-0.002363407708824642,-1.926510965260083,9.8000025133685
1727705515.6619058,-3.831154545654216e-07,4.6640621346319603e-07,0.771076120870188,-0.6367429746949855,-7.196622722693887e-07,-8.368376641343216e-08,-0.06825390324643138,-0.00663956375313433,-1.9260225409378537,9.800002466924784
1727705515.6634386,-3.759230388165065e-07,4.586264418488204e-07,0.7716994981513632,-0.6359873304969073,-6.982175082687751e-07,-7.657115855053917e-08,-0.06385784975245333,-0.010358610674253909,-1.9255553630353088,9.80000242138584
1727705515.7030299,-3.6671884837080947e-07,4.485677536969829e-07,0.7724670152061094,-0.6350548877209187,-6.706098198827669e-07,-6.793075833818089e-08,-0.05835085239606195,-0.014525638692699048,-1.924963149115045,9.800002362856974
1727705515.7657146,-3.640029869948433e-07,4.4621599802124864e-07,0.7733260244344222,-0.6340085645573881,-1.6081688175117234e-07,-1.1341078104462346e-07,-0.10998293527231845,0.28479000009912236,-0.5059948962667508,9.800001245680233
1727705515.7990222,-3.6198349857595556e-07,4.454564365262563e-07,0.7747065590693666,-0.6323209211583724,-1.2103742388008817e-07,-1.7580407164835975e-07,-0.16272167623625916,0.24637438952502527,-0.4154461064431553,9.800000550696588
1727705515.82991,-3.5960479274871416e-07,4.4495025969575467e-07,0.7765547456640314,-0.6300497813556831,-1.1546076960469665e-07,-2.3146220367375032e-07,-0.21104229449234463,0.2299926167939107,-0.4166624264266464,9.800001097223106
1727705516.017737,-3.573258740331192e-07,4.462900731000358e-07,0.7796040034130722,-0.6262727823097403,4.4945075739221625e-08,-2.8750770890994696e-07,-0.26364493297642855,0.31023241504886234,0.02738709084465539,9.80000021789665
1727705516.0203638,-3.558381447752077e-07,4.48329323057812e-07,0.7824843765598257,-0.622670218044394,4.35301853450491e-08,-3.636312595151521e-07,-0.32942592172624274,0.30913281279137006,0.01811045010317274,9.799999967550473
1727705516.0554473,-3.540161796103699e-07,4.5072856130416724e-07,0.7856895035579176,-0.6186210504004731,4.649093145613099e-08,-3.976202052387633e-07,-0.3469142087303516,0.026705113948894698,-0.012177266357219397,9.799999972277249
1727705516.336474,-3.5140702683988707e-07,4.5388782086685265e-07,0.7900412728045338,-0.6130536577372837,4.0168146735273415e-08,-4.1133610982681035e-07,-0.3698756467634447,0.3097532964665074,0.0115389398693168,9.799999927291474
1727705516.3403544,-3.49100910906428e-07,4.564153030813217e-07,0.7938305735876906,-0.6081389811853107,3.894578528772823e-08,-4.877304346847487e-07,-0.43564957101724566,0.3106191745883821,-0.0008150835712634492,9.799999990318128
1727705516.3572242,-3.4644235521896214e-07,4.5942153681009906e-07,0.7980949355491134,-0.6025317202027836,5.053091139666705e-08,-5.486637101519719e-07,-0.4786390581643439,0.0874296264647882,-0.005876242035128256,9.799999665422744
1727705516.40097,-3.4249671399931157e-07,4.634397464196296e-07,0.8039292748622717,-0.5947249120552205,3.5597154523449454e-08,-5.684486449507674e-07,-0.5041539080936581,0.3121009877475123,-0.015872123617012516,9.799999874862932
1727705516.4490829,-3.3928029928607784e-07,4.666756856921925e-07,0.8086181267269684,-0.5883338551606863,4.437119268963265e-08,-6.148869835201671e-07,-0.5327519622874739,0.04537698062242203,-0.03324112278787066,9.800000002985133
1727705516.4784784,-3.3584716314107166e-07,4.6988989692419466e-07,0.8131983857224132,-0.581986585290527,3.2207741382164914e-08,-6.004626879014297e-07,-0.4972978548547426,-0.513109073775546,-0.13467122417289965,9.799999892151904
1727705516.7088525,-3.3282004986620136e-07,4.7262595393378336e-07,0.8168772609963736,-0.5768115294155693,3.118171953105874e-08,-4.7187145568262e-07,-0.38629726138496145,-0.5153382085179494,-0.11059208555179725,9.800000122452463
1727705516.7205951,-3.299860885529985e-07,4.7536572805547464e-07,0.8202526017742358,-0.5720014591609555,3.006512127456535e-08,-3.001939054674636e-07,-0.23832213773909577,-0.5171283219057478,-0.08749652848810681,9.800000096266446
1727705516.751612,-3.287709398628686e-07,4.7675637004212226e-07,0.8216758727979533,-0.5699550509131278,2.942434252295962e-08,-1.741953929478441e-07,-0.1309892226118137,-0.48853434170470605,-0.07304562965535763,9.800000081034801
1727705516.7828038,-3.2830306998511717e-07,4.776129977902706e-07,0.8222225318869067,-0.5691661515385016,2.889936363756503e-08,-5.669262797679178e-08,-0.031302712622066846,-0.4539137644866937,-0.06348217895875757,9.80000007003213
1727705516.889495,-3.2842856597817505e-07,4.784718977612322e-07,0.8227953194572903,-0.5683378064838187,2.7833951777353553e-08,-8.734041119309484e-08,-0.09073945645164484,0.36808674787206475,0.0493584323804054,9.799999933252383
1727705516.914762,-3.27856201527342e-07,4.793642791026812e-07,0.8239974891779623,-0.5665934502163579,2.676349487878088e-08,-1.7639043345040814e-07,-0.1658748906045527,0.3427567674792997,0.04154434536059642,9.799999942687739
1727705517.1298566,-3.267378620300788e-07,4.806104264863044e-07,0.8258022123804679,-0.5639598443392815,2.57827881360704e-08,-2.5932809515399234e-07,-0.23576393806533497,0.31937779890073426,0.03180956825460812,9.799999954393403
1727705517.133765,-3.2456700638852183e-07,4.828523398020738e-07,0.8288951750270226,-0.5594039585278094,2.7357032983728426e-08,-3.299843560287246e-07,-0.28387276380449866,0.022230265448554696,-0.007497616565815939,9.799999959298539
1727705517.173738,-3.22723670408233e-07,4.845752266753418e-07,0.8312737759468636,-0.5558632110714872,2.6218462656833273e-08,-3.3180221599576297e-07,-0.2844268629835981,0.0020464314520612483,-0.01125118442543777,9.800000006520584
1727705517.43517,-3.208629589173335e-07,4.862820650725492e-07,0.833637827418918,-0.552311481589806,2.5415484064457187e-08,-3.3204329007177447e-07,-0.2844387090996925,0.0016148224178606854,-0.011315286536513454,9.800000007013834
1727705517.4363847,-3.188232583001327e-07,4.880315060101414e-07,0.8363475027787527,-0.5481996484816498,2.198204600844189e-08,-3.9480788968301946e-07,-0.350218511520637,0.3094020222096906,0.014706040086910068,9.799999976013154
1727705517.461787,-3.153890328193909e-07,4.90938168249908e-07,0.8407462924214569,-0.5414292860376444,4.75769564843979e-08,-4.952398508943872e-07,-0.4325708692442245,0.23532920543827454,0.06263744453359735,9.80000043772639
1727705517.4936936,-3.123797961794192e-07,4.93383466166853e-07,0.8443102004983644,-0.5358547240941993,2.691554393658298e-08,-5.177774122350152e-07,-0.4426095937517437,0.01783805625807822,-0.024662445228454243,9.800000003153517
1727705517.5246031,-3.0928791174533767e-07,4.957996118091565e-07,0.8478532614628765,-0.5302309374474687,2.5828065700219495e-08,-5.194203330559461e-07,-0.4432133612451293,0.004732405838082743,-0.02736635586564938,9.800000025571684
1727705517.6030765,-3.050879701750214e-07,4.99005318769826e-07,0.8526376040496723,-0.5225027427297315,2.5455235565390122e-08,-5.457509399941314e-07,-0.46936541950258853,0.10731204954318545,-0.016538481022840883,9.800000003094334
1727705517.8222342,-3.0172971691160266e-07,5.014934118103216e-07,0.8563243975754453,-0.5164383081421322,2.493556466295022e-08,-5.558834432379381e-07,-0.4738165331910009,0.010636424060920642,-0.03058274486131862,9.800000029755097
1727705517.8243132,-2.981221485338358e-07,5.039478691823915e-07,0.8603086551108982,-0.5097734967031288,1.660424956603995e-08,-6.193077152615996e-07,-0.539584747691616,0.3125809363206317,-0.024665033106556045,9.80000002333848
1727705517.864342,-2.9266562826129813e-07,5.079224172509127e-07,0.8662567643287662,-0.49959905749942407,3.717844078217493e-08,-7.1225199361408e-07,-0.6098128257014607,0.11105156880009935,-0.012769083673931083,9.79999945182861
1727705517.8931115,-2.8817505314742675e-07,5.109847513819401e-07,0.8708185681620038,-0.49160453755425565,2.7740499914238307e-08,-7.227105764130367e-07,-0.6143122666527385,0.01370446841468226,-0.051620677814010266,9.800000046254077
1727705517.9700713,-2.836220568957743e-07,5.139953249174616e-07,0.8753131811051548,-0.48355644446458323,2.6770408503733225e-08,-7.237499481896659e-07,-0.6145829000095332,0.007833004816666243,-0.052819457782346105,9.80000005584427
1727705518.0022933,-2.7903187482028455e-07,5.169546817492687e-07,0.8797338052939642,-0.47546654122309817,2.5923902217992614e-08,-7.242131135047235e-07,-0.6145991761042624,0.007479640390988029,-0.05287443321118876,9.800000056233067
1727705518.226783,-2.7262690923674543e-07,5.20966253927021e-07,0.8858317143270859,-0.464006652853157,2.7246786286778486e-08,-7.726908030373272e-07,-0.6562208707971035,0.03587604432284094,-0.054874831515033626,9.800000020583903
1727705518.2279215,-2.673786374021795e-07,5.238728945890836e-07,0.8906552628728308,-0.45467923057533943,1.1210885862191568e-08,-8.374467609679308e-07,-0.7219749824909777,0.3168293428566959,-0.07875909785301671,9.800000088352503
1727705518.244138,-2.617740036585697e-07,5.273854888941573e-07,0.8957951124548365,-0.44446722770265057,8.553593219683864e-08,-9.097495335711852e-07,-0.7776373682191677,0.18634546915658928,0.0897147131205877,9.800001038080895
1727705518.5357265,-2.537397673782058e-07,5.320751811986257e-07,0.9026583175964387,-0.43035794598638427,3.0621976174536446e-08,-9.288135155225242e-07,-0.7855973037386967,0.01631236353004517,-0.08530575537637448,9.800000082245514
1727705518.537604,-2.50878178473631e-07,5.423674035604803e-07,0.9076039092025778,-0.41982751696362375,2.928529753126757e-07,-9.278942860780231e-07,-0.7781371614812831,0.13920955489667264,0.6972528053380284,9.799991928613348
1727705518.5504682,-2.4589255652835e-07,5.486641744822975e-07,0.9125572362515765,-0.4089490072912791,2.4184614463132357e-07,-9.677510445537075e-07,-0.8062866534638503,0.1845296843908673,0.5711918583163164,9.799999263175913
1727705518.5912945,-2.384446315909413e-07,5.566375585198061e-07,0.9192292679942378,-0.3937226852270657,1.6679368857017023e-07,-1.0255268933088183e-06,-0.8483588745751673,0.2584068716094024,0.3802124939903675,9.799998496931465
1727705518.6218514,-2.3079841227474245e-07,5.590652977757736e-07,0.9243545640791558,-0.3815345854122113,-1.714043745697179e-08,-1.0813130505776263e-06,-0.8901468646476162,0.16864423350547253,-0.16029298445812987,9.800001536207146
1727705518.6916428,-2.2315066696230687e-07,5.620587681320926e-07,0.929376179629925,-0.36913400918381867,-2.3213604757984458e-08,-1.0867830826427347e-06,-0.8901198398113789,0.04470656137133596,-0.19537987320163358,9.79999969322351
1727705518.722819,-2.155717573917034e-07,5.651196327945881e-07,0.9342022098806315,-0.3567439292458649,1.467046224747438e-08,-1.079011561497036e-06,-0.8851249376567266,0.0686907744095275,-0.08419601424455699,9.800000190636117
1727705518.9432704,-2.087157421030319e-07,5.778199325689547e-07,0.9402909268965062,-0.3403718155131704,6.222674862949633e-07,-1.069440096855965e-06,-0.862943193209943,0.004961911599271639,1.6344155269784788,9.799997865885938
1727705518.9524903,-2.030999044168109e-07,5.858539739765157e-07,0.9444419464184179,-0.3286782771115324,3.5290068397880214e-07,-1.0227857233103943e-06,-0.8077626496030403,-0.13819093160621496,0.9237957677729546,9.79999878421362
1727705518.9862702,-1.9744171148796473e-07,5.925738649890428e-07,0.9481726294796531,-0.31775566825038715,2.4336348431510024e-07,-9.596873125589827e-07,-0.7497478940273985,-0.13891840534174293,0.6684889873126115,9.799997821232509
1727705519.0245118,-1.8972478664605948e-07,5.984721441586876e-07,0.9524857746154822,-0.3045830743077338,1.3408393553599626e-07,-8.525306833050766e-07,-0.6630276146437216,-0.07599249293815707,0.4257145548732897,9.799999065137186
1727705519.0560288,-1.8351637815163696e-07,5.998295827965442e-07,0.955417384797212,-0.29525856605162615,-6.48081092961078e-08,-8.25305867714856e-07,-0.648411116876003,0.11037984719738955,-0.09114374170341928,9.799999695178014
1727705519.0911174,-1.772716925951684e-07,6.005490927831205e-07,0.9582013773787795,-0.28609460041919305,-6.808944099909011e-08,-8.070275860351103e-07,-0.6355809756849031,0.10887925735404247,-0.10156668057974544,9.800000051086734
1727705519.359737,-1.7065421262761307e-07,6.062890154058747e-07,0.961591716793805,-0.2744838250118682,1.9270960773962074e-07,-7.459697060383458e-07,-0.5746023763128884,-0.16711529673815773,0.612761427302878,9.799997141087
1727705519.3898427,-1.6621876714350886e-07,6.102254706279104e-07,0.963734699594742,-0.266862190646469,2.1360669028102838e-07,-6.599526395610807e-07,-0.5056322887028925,-0.16072702435620115,0.704289688629142,9.800000497063795
1727705519.423187,-1.6227311947542357e-07,6.135578255037787e-07,0.9655454667500518,-0.26023441670544223,1.323593809675309e-07,-5.721984847351141e-07,-0.4337460027772704,-0.2136792312366029,0.5028277234964558,9.799999215806448
1727705519.7079475,-1.5648152966996785e-07,6.075285078592974e-07,0.9671204838283654,-0.25431863824579415,-7.704137479338536e-07,-5.157261270130441e-07,-0.4031367444201736,0.048012973925125095,-1.97058810153606,9.800002626323655
1727705519.7234952,-1.479105815186522e-07,5.942511708464038e-07,0.969076383025167,-0.2467609447673712,-7.400289957247308e-07,-4.7551091107869087e-07,-0.3825434838319449,0.008680790420644131,-1.9670565126595565,9.800002557505902
1727705519.7529016,-1.4191360695339454e-07,5.845610551037251e-07,0.9704378823357449,-0.24135102346448212,-7.179906542906109e-07,-4.4598413369482916e-07,-0.36653933410855144,-0.018631383623166773,-1.9644004183814452,9.800002507355927
1727705519.7908602,-1.373990456317302e-07,5.794166332922241e-07,0.9716268639925767,-0.23651899959114653,-2.6968284628582705e-07,-3.81013315754844e-07,-0.3069503949592382,-0.3302729619339258,-0.799481018816149,9.80000253920638
1727705519.8655915,-1.342149258730455e-07,5.79646155110395e-07,0.9727818511085383,-0.23172283045373604,6.271537754305786e-07,-2.6452788176366033e-07,-0.22305672144608785,-0.06418825191623845,1.7083169440186394,9.80001509482681
1727705519.9000244,-1.3447635048578628e-07,5.890722405307582e-07,0.9735162482128765,-0.22861783496735122,6.085872624676252e-07,-2.50632289278322e-07,-0.20768222206704667,-0.04780849023967532,1.7106464092933236,9.799997810734597
1727705520.1100276,-1.3474115781386172e-07,5.982097814162379e-07,0.9741915253661146,-0.22572299817357405,5.905285083485832e-07,-2.374779482585549e-07,-0.19354563477198983,-0.033408316888478284,1.7126523464365868,9.799997781148162
1727705520.1345932,-1.3504489571766618e-07,6.097123217254458e-07,0.9750123441427455,-0.22215068932793963,5.165136533886718e-07,-2.223172942493401e-07,-0.17869950669840853,0.014935861631440814,1.578468547077723,9.799996916395799
1727705520.1628346,-1.33715132143262e-07,6.119301290705862e-07,0.9757007289297972,-0.21910747948317544,9.147667016197415e-08,-2.693825014820681e-07,-0.22410440216760613,0.2805873351041393,0.45408937439965896,9.79999913104977
1727705520.1936526,-1.318406778124649e-07,6.138671862425593e-07,0.9765303546979716,-0.21537981881564494,8.657819280431597e-08,-3.2896495415244404e-07,-0.26944435027173064,0.28306710023238996,0.4427680206133511,9.799998757522365
1727705520.223385,-1.2930566428340286e-07,6.149069783760423e-07,0.9774749828561919,-0.21105131577389408,-4.3254531320491014e-08,-3.798534093476776e-07,-0.3027905564850921,0.1470008432486079,0.06397226879316738,9.799997934186393
1727705520.269939,-1.2535974431015417e-07,6.148976996871212e-07,0.9787393760382124,-0.20510785892290267,-6.476404295645562e-08,-3.8357995272087775e-07,-0.3037372797597785,0.08852036463727711,-0.008161489076141558,9.799999827113899
1727705520.489946,-1.2359172203338925e-07,6.205917474126258e-07,0.9796469483947823,-0.20072831514360445,5.501293314423069e-07,-3.7531884522887264e-07,-0.29262028461471556,0.010833781905405874,1.6988717931776223,9.799997739478812
1727705520.519727,-1.2222980577906034e-07,6.278624226458859e-07,0.9804965611295393,-0.19653623994759428,2.8424834181323695e-07,-3.658442308303915e-07,-0.2867741656164349,0.17202824525116756,1.0291264960876032,9.799993666484571
1727705520.572503,-1.1857907978170494e-07,6.298522571612156e-07,0.9817069438456317,-0.190398204836228,-6.716431471323466e-08,-4.157987573348309e-07,-0.3224750733426594,0.17139100260522278,0.06396340722018268,9.799998061875504
1727705520.8314376,-1.1556954373735696e-07,6.312051402028282e-07,0.9826510084088027,-0.18546427060960058,7.793344266184945e-08,-4.418447786604268e-07,-0.34761187890531386,0.3264761487128559,0.48389761891170224,9.799997767197041
1727705520.842668,-1.12046018630493e-07,6.32050263211927e-07,0.983702684783589,-0.17980274733481183,5.017585430087923e-08,-5.097254890885459e-07,-0.39969620978308873,0.3713562320415328,0.4038428451983491,9.799999912714147
1727705520.8832784,-1.0650136620278994e-07,6.316610419017413e-07,0.9851500042560877,-0.1716958622501441,-8.974156335748789e-08,-5.376649229896684e-07,-0.41367637131820395,0.17814245193307365,-0.019183419489529688,9.799999977644202
1727705520.9139295,-1.0224301794602816e-07,6.31105021025777e-07,0.9862063671770982,-0.16552039553765574,-8.638204472135946e-08,-5.444531202065065e-07,-0.4205101408328701,0.19935108180406616,-0.015149344894847597,9.799999921410485
1727705520.988531,-9.794109570053817e-08,6.305239790364238e-07,0.9872330904281525,-0.1592822186035588,-8.570656069997202e-08,-5.458694561501094e-07,-0.42164602450895816,0.17600317684338457,-0.023643339980502737,9.800000043518303
1727705521.0220752,-9.374825010183359e-08,6.308596216107503e-07,0.9882381720361575,-0.15292257953038485,-7.626961217469704e-08,-5.567004522392646e-07,-0.43059525458213377,0.1924529769732776,0.0007936303028184982,9.79999948442425
1727705521.2483206,-8.755975622160154e-08,6.279165599061645e-07,0.9895529555392026,-0.14416985878895078,-2.7976348735777307e-07,-5.842151564774488e-07,-0.462500650382013,0.4222062821792904,-0.5526068306251756,9.800001655721024
1727705521.2522147,-8.295412299379137e-08,6.285061070629615e-07,0.990571775229734,-0.13699473755517538,-6.404427967321958e-08,-6.251610109679915e-07,-0.4872253227687523,0.23795089881225345,0.00621548875797276,9.799999276239328
1727705521.281662,-7.808170728687033e-08,6.280810163181114e-07,0.9915492313273118,-0.12973095950395258,-7.37882638412497e-08,-6.27809270229402e-07,-0.4888656611088348,0.20453506473082533,-0.031352891791470223,9.800000041015734
1727705521.327905,-7.172501922848047e-08,6.286319865418497e-07,0.992776283494283,-0.11998021058024022,-1.855816539423263e-08,-6.337486725305339e-07,-0.4942478219910057,0.21786795579708101,0.11976449134361332,9.799997365744664
1727705521.3554678,-6.68541891147961e-08,6.284188230588927e-07,0.9936356166841158,-0.11264218240240848,-5.829027987388681e-08,-6.306980909334972e-07,-0.4914062535082938,0.19087428863261258,0.003501084058258439,9.7999999508165
1727705521.3848493,-6.209522244065961e-08,6.289829232702427e-07,0.9944421508185224,-0.10528441800680255,-2.0917514418391275e-08,-6.344929911073582e-07,-0.49544600579033515,0.22025197977719763,0.10974984334368479,9.799997834657576
1727705521.627216,-5.586792385969664e-08,6.314542560752534e-07,0.9954436236681539,-0.09535193809258624,1.6087626877718914e-07,-6.469806291140632e-07,-0.5089728962155544,0.3558975795563728,0.6351833414876465,9.799996452852886
1727705521.656305,-5.085417528843596e-08,6.314645978590897e-07,0.9961450630146447,-0.08772122565917695,-5.7347725725958984e-08,-6.566641765646153e-07,-0.5102777983568724,0.21791594940295045,0.012578540911971142,9.799999706398381
1727705521.6868074,-4.586733349869937e-08,6.31796311139438e-07,0.9967904465026425,-0.08005501708613166,-2.5629108145120374e-08,-6.615591913355397e-07,-0.5151026824634175,0.24378125577422755,0.10189055703916636,9.7999981359391
1727705521.9378512,-4.0919389670845256e-08,6.33086580514103e-07,0.997371709151172,-0.07245463259493573,2.8601880451820424e-07,-6.491254216383478e-07,-0.4962724436170578,-0.013791200630618164,0.9303712588016592,9.800005625045099
1727705521.944754,-3.508356468459085e-08,6.36504865110619e-07,0.9979713945684447,-0.06366392716999941,1.1917582726000529e-07,-5.377594541912227e-07,-0.40455979710526735,-0.13233137211049578,0.49388513265830225,9.79999930514207
1727705521.9766438,-3.144246059892244e-08,6.378454139013815e-07,0.9983002651768227,-0.05828019000892837,-1.6152788235244327e-08,-4.5015057192810766e-07,-0.34235844883948224,-0.014480174599421218,0.15908464105371395,9.799997203200576
1727705522.0159628,-2.812403938140131e-08,6.37258761447353e-07,0.9985817292133825,-0.05324030504048349,-8.082118766842244e-09,-4.323570208699249e-07,-0.33875654839409675,0.22645094704934765,0.2130438601192032,9.800001255953253
1727705522.0877063,-2.365073771808653e-08,6.358925649043958e-07,0.9989214380096463,-0.04643232370165645,-8.511144131082242e-08,-4.3732352594087856e-07,-0.341028970850654,0.17272424121054045,-0.015335662981356989,9.800000027680664
1727705522.1256175,-2.0338812782066487e-08,6.346259324312338e-07,0.9991390166498177,-0.04148765367711116,-8.967496836102789e-08,-4.1472328795427506e-07,-0.3218535538276942,0.09272156423204958,-0.04323751460476714,9.800000546488873
1727705522.361755,-1.720016765873074e-08,6.33360380879909e-07,0.9993203662008425,-0.036861981713032343,-1.1894576894302677e-07,-3.862971358171662e-07,-0.28540369965249834,-0.3237465594484013,-0.1849630900993131,9.799999445025628
1727705522.3696804,-1.4052866201486338e-08,6.325917676399679e-07,0.9994793796034859,-0.03226406277935956,-7.65775196404192e-08,-2.764767010497831e-07,-0.21737892883183374,0.04288504413146337,-0.009107934773575282,9.799999717433947
1727705522.40373,-1.1999270531669294e-08,6.3151332775378e-07,0.9995785437100068,-0.029029897591673404,-7.680085596583909e-08,-2.702425768614879e-07,-0.2155136865151531,0.10723887780511576,-0.006419857135206424,9.800000020901557
1727705522.4372742,-9.95884335283523e-09,6.303833053422436e-07,0.999666518566409,-0.02582347104704691,-8.978298538125193e-08,-2.6671759615852625e-07,-0.21056718069230457,0.039944774955870135,-0.05756558864341909,9.799999779265077
1727705522.467735,-7.987605777992458e-09,6.293429520888104e-07,0.9997425322378417,-0.022690730139677484,-7.233538469176414e-08,-2.6054448445396126e-07,-0.2087133877298767,0.10368868691456604,-0.0061709355079739465,9.800000025767696
1727705522.5109458,-5.477408967069733e-09,6.28092963780403e-07,0.9998242022295609,-0.01875005694997045,-6.944866796973161e-08,-2.3819213544261096e-07,-0.19136123954740533,0.08303666589339424,-0.006047444547751534,9.799999987252098
1727705522.729149,-3.6976856018594525e-09,6.269341329721029e-07,0.9998711580684247,-0.016052017396998797,-1.0389969734168818e-07,-2.1646528351411024e-07,-0.15759537179791344,-0.3717687238481191,-0.16842411915940259,9.799999465399715
1727705522.7591622,-2.4427590321328997e-09,6.261461326972537e-07,0.9999003087138425,-0.014119937449220243,-6.512001558719461e-08,-1.528189316164051e-07,-0.12537673848093922,0.03800672294382525,-0.004134261579550369,9.799999951961912
1727705522.8430471,-9.803899950478067e-10,6.248995660194996e-07,0.9999321771406797,-0.011646506699846182,-6.312963908786482e-08,-1.4855913745156467e-07,-0.12310105954945824,0.0604926331064615,-0.0022420845735341382,9.800000014424443
1727705523.086445,1.0029240183302046e-10,6.238179011062791e-07,0.9999532769028268,-0.009666644242390054,-9.67072964729069e-08,-1.6422069585947682e-07,-0.14985676044307034,0.4371734646137025,-0.04932280362751379,9.799999409383489
1727705523.0921767,1.6841824309905092e-09,6.231272219854025e-07,0.9999770149560514,-0.006780085485938114,-4.823946632410322e-08,-2.478725138966669e-07,-0.2037250396272744,0.18641949611661623,0.03738731937755314,9.799998976936948
1727705523.1236916,4.212994332062873e-09,6.220110559956865e-07,0.9999964560766301,-0.0026622985921046505,-5.72365988925929e-08,-2.548727254397784e-07,-0.2061071874158001,0.10440075385047473,-0.005613076006251217,9.80000001589394
1727705523.1530833,6.112850466214036e-09,6.211891087565905e-07,0.9999999077668636,0.00042949491029081743,-5.5602859074630786e-08,-2.546267059407004e-07,-0.2061212789105698,0.10391486999009963,-0.005698344337139397,9.800000016370715
1727705523.2171133,7.999541025617077e-09,6.203850335044744e-07,0.9999938780821502,0.00349911386457058,-5.4021557930586104e-08,-2.5228813330500486e-07,-0.20446528323452118,0.10178434171259158,-0.005796895776938189,9.800000016568136
1727705523.2542913,9.875288963676253e-09,6.19598099289595e-07,0.999978600764958,0.006542018937042149,-5.255409118662184e-08,-2.4915796683134507e-07,-0.19971840603787605,0.037015270239499624,-0.014684855705784062,9.800000019198357
1727705523.4718723,1.2290025639104356e-08,6.185761882013442e-07,0.9999444594761951,0.01053935303882736,-5.039087873695961e-08,-2.474389429856852e-07,-0.20511036473998526,0.2002139563017533,0.008553685418735966,9.80000000968641
1727705523.4798155,1.4177432898468746e-08,6.178287157007854e-07,0.9999068062736622,0.013652060914846331,-4.903238111303805e-08,-2.5554435586157194e-07,-0.2078175947698242,0.1068556359344981,-0.005486937275098738,9.800000014151463
1727705523.5025225,1.6063205219749654e-08,6.170959507732897e-07,0.9998598232451642,0.016743173527379085,-4.764999109813125e-08,-2.530216030902772e-07,-0.2058929802932148,0.102302470357454,-0.005905572648011668,9.800000015508866
1727705523.5418096,1.8560243162696722e-08,6.161419424490138e-07,0.9997824162314943,0.02085953484466241,-4.585394556726597e-08,-2.525748111308448e-07,-0.205850783218052,0.10375760731531332,-0.005686503237233215,9.800000014423428
1727705523.572894,2.0448798885886066e-08,6.15442887266312e-07,0.9997120520797431,0.023996102311215572,-4.45374405027817e-08,-2.5691070830184905e-07,-0.20955152903193486,0.10850377598913527,-0.005471228923489428,9.800000012990758
1727705523.6060562,2.2346254146774136e-08,6.147562072748991e-07,0.9996321767077436,0.027120311394963514,-4.329652885773308e-08,-2.545219827565e-07,-0.20748664996765462,0.09835314429497788,-0.0066917631235148475,9.800000017003859
1727705523.8604078,2.48490022439791e-08,6.136775394102421e-07,0.9995163922062575,0.031096329535967138,-7.812567876377497e-08,-2.340399613822877e-07,-0.17354930967820853,-0.36838645288743443,-0.1704638222756872,9.799999452879199
1727705523.8898747,2.6247514118978108e-08,6.132016959895809e-07,0.9994447289053381,0.03332017201273757,-4.0006446841476554e-08,-1.7591750632116616e-07,-0.14531172903095207,0.05118040994801218,-0.004445817254269185,9.799999948204304
1727705523.932232,2.7251055323876016e-08,6.056695673330928e-07,0.9993715267670797,0.035447869990574254,-7.268198764478651e-07,-1.6686621569973883e-07,-0.13901528419072062,0.02913651918381343,-1.9330277120964423,9.800002488493902
1727705524.1852293,2.8021443664912925e-08,5.94961455357974e-07,0.9992986168075391,0.03744695509896734,-7.051044471972065e-07,-1.529182592061321e-07,-0.13057753075299994,0.018951993581699418,-1.9320585308285334,9.800002442384757
1727705524.1925209,2.992876131390216e-08,6.071177337462631e-07,0.9992029548554391,0.03991810375994109,6.011905918363979e-07,-1.4254913618838394e-07,-0.11963782145598167,0.018502028165032547,1.7211629159369277,9.79999778689424
1727705524.2220194,3.1037576840886334e-08,6.111884486249852e-07,0.9991433430057839,0.04138333150982437,6.937256291886609e-08,-1.0519426026432421e-07,-0.08413714841794774,-0.1099201387023651,0.2685850500973944,9.799996503095112
1727705524.2518039,3.168501405197395e-08,6.10711939356407e-07,0.9990927389374482,0.04258754515223806,-3.550324317901394e-08,-9.22565329855362e-08,-0.0799005026291227,0.036713096646160376,-0.0005347202712915566,9.79999997239715
1727705524.3218524,3.256980366654352e-08,6.100539665338414e-07,0.9990190070352376,0.04428344591328143,-3.4533012534813175e-08,-9.906268713129586e-08,-0.08536977586722572,0.04391972523025917,-0.0007200308484286735,9.800000002334167
1727705524.3552153,3.324116022388714e-08,6.096343646180769e-07,0.9989643162989452,0.04550049187654848,-3.0945898751225837e-08,-9.143484691611522e-08,-0.0783654941788692,0.018626417114069822,0.00393161090345414,9.799999665309564
1727705524.564777,3.385393077583561e-08,6.09117775507996e-07,0.9989105023572206,0.04666699347583286,-3.275782330338203e-08,-8.974284126580045e-08,-0.0777879420406692,0.03855735356700479,-0.0008653104271630629,9.800000006067625
1727705524.5804532,3.446989650510037e-08,6.080098513699472e-07,0.9988577581068749,0.047782623089744125,-1.0068971267003273e-07,-5.7615105402015066e-08,-0.047115950901520334,-0.10296550116096546,-0.21113465052003463,9.799998888425355
1727705524.6090145,3.476485137812482e-08,6.07495655534432e-07,0.9988260371029843,0.04844117674848353,-2.9568767623059367e-08,-4.693928995037028e-08,-0.043577313768328824,0.01896592936806178,-0.001202634305443076,9.800000031548494
1727705524.9059756,3.5049058614709184e-08,6.070527540877522e-07,0.9987942099419256,0.049093036024617454,-2.849800517083112e-08,-4.685315069632313e-08,-0.04350091128836013,0.02160162666269123,-0.0002664740861100379,9.800000005643113
1727705524.9078448,3.5153720578492204e-08,6.065246976952612e-07,0.9987844722166181,0.04929075023370244,-2.7592148769500178e-08,-5.7151626215576245e-09,-0.009582622987405594,-0.021428552144548835,-0.004905886695348426,9.800000065474604
1727705524.9367309,3.502457494913205e-08,6.053961250640662e-07,0.9987835082146397,0.04931028004471749,-3.9991867434221685e-08,1.5933524169711226e-08,0.008956721738959422,-0.056987600979519056,-0.049432518229656455,9.80000191116973
1727705524.9671047,3.4803092234589865e-08,6.050309622817808e-07,0.9987910917142517,0.04915643510147827,-2.3941656074896718e-08,2.017269378018414e-08,0.010425279715558157,-0.006272179220338452,-0.00028515401371250425,9.800000010628425
1727705524.9976327,3.451645981443974e-08,6.047476965659412e-07,0.9988071166714013,0.048829741819865324,-2.298651094418451e-08,3.5447315429911543e-08,0.02316283976322015,-0.021250791272055286,-0.0009784505908168968,9.79999998614716
1727705525.052115,3.4036991806648265e-08,6.04050925646946e-07,0.9988313998977184,0.04833047256129508,-2.836676421540726e-08,3.985310585366453e-08,0.026980008018995614,-0.023758824232360153,-0.019951943358096125,9.800000836123232
1727705525.3087518,3.366170282163787e-08,6.037429570398151e-07,0.9988510656267051,0.04792231939326319,-2.1019014038577092e-08,4.0491674924325364e-08,0.027273005122325375,-0.01362567732877198,-0.00016142538132366232,9.800000006733882
1727705525.3120933,3.279363732242587e-08,5.931607387835942e-07,0.9988696980745704,0.0475323707389364,-7.002150476857104e-07,3.8665275546318543e-08,0.02541278096672839,-0.005262248745631867,-1.9216412124086837,9.800002422773145
1727705525.342544,3.170654386968898e-08,5.79537872054368e-07,0.9988923386209299,0.047054179878868896,-6.725602337674823e-07,3.467268086312092e-08,0.02306986170033789,-0.00286643711039062,-1.9214584536094188,9.800002364567167
1727705525.372856,3.0940342944738046e-08,5.696740264449138e-07,0.998907783518431,0.04672515410322131,-6.525356727120535e-07,3.192764883531603e-08,0.021413331189265333,-0.0013338653642272105,-1.9213223760153062,9.800002322416857
1727705525.4479187,3.114268606248462e-08,5.796471294070678e-07,0.9989221731281146,0.04641650603683878,6.581919888652225e-07,2.8976736912020442e-08,0.0202028538365993,0.00034641816777705676,1.7307422884625978,9.799997859154537
1727705525.4816747,3.1337364561255553e-08,5.893233543011747e-07,0.9989356748877478,0.04612501963372939,6.385785781346227e-07,2.7921112832032694e-08,0.019088695618546547,-0.0007367392225269182,1.7305352933088358,9.799997829821598
1727705525.7366278,3.509324841550011e-08,5.874812587138235e-07,0.9985077586511193,0.0546100349127453,1.0859448539387102e-08,-1.7767564141118762e-07,-0.15025924705193894,0.06376019986567016,-0.0033544365703458,9.80000004444394
1727705525.7431135,3.131699831917891e-08,5.972667948229459e-07,0.9989646012946563,0.04549423435833205,1.2983006122265031e-07,5.745759802356725e-08,0.05021687115196942,-0.20491024036125693,0.3508582536630564,9.799997219069631
1727705525.7463381,3.0433435174623527e-08,5.89845670126759e-07,0.998997382025617,0.04476863528871966,-2.2334763313955568e-07,6.363593366077461e-08,0.048611389090800414,-0.035094902281541655,-0.6359430121913193,9.800007498062456
1727705525.7516685,2.99013191286662e-08,5.89794016162517e-07,0.9990299982752864,0.04403478790380155,7.071001008407652e-09,6.425021986508517e-08,0.04901469593694349,-0.020128913264789678,-0.0021149907603692456,9.800000078988049
1727705525.7618425,3.644386677446305e-08,5.87577243097239e-07,0.998382031909099,0.056862275374032656,1.0859028101306193e-08,-1.781134061333567e-07,-0.15039792769311883,0.05891393490737816,-0.0030574359317681113,9.800000001006591
1727705525.8303733,3.825748838562945e-08,5.876126221762359e-07,0.9982036814822117,0.05991168729899049,1.0292634707768734e-08,-1.8219725648387247e-07,-0.15387840739363112,0.06281203694007884,-0.003588982384319834,9.800000034540433
1727705525.8604558,3.942504248878988e-08,5.842248020027971e-07,0.9980636824996515,0.062200367160424486,-6.841620277515143e-07,-1.8000627831534648e-07,-0.1507090558062144,0.016120169553847933,-1.9342158884343656,9.79998856146419
1727705525.8919756,4.007787327571646e-08,5.741117266728815e-07,0.9979266146282196,0.06436203707411481,-6.63779836424589e-07,-1.6502498227246487e-07,-0.1412977439354865,0.005995392496252509,-1.9330986397360979,9.800002358164992
1727705526.052115,2.9204930228858945e-08,5.899708213226554e-07,0.9990726922759702,0.04305526156111533,7.417564327588924e-09,6.40388848547609e-08,0.04902362440754556,-0.019815051929756064,-0.0002954866389779672,9.799999998983054
1727705526.0542977,2.891670529800952e-08,5.895737336127086e-07,0.9990656358232143,0.043218691752619554,-2.7251668868742717e-08,-2.451689243152444e-08,-0.04022160995376946,0.4120116773530849,-0.04019671052312087,9.800000046821808
1727705526.0719929,2.944290916608357e-08,5.904497319356898e-07,0.99901783590205,0.044309858375253974,1.5936149126782815e-08,-8.97651591545893e-08,-0.07903217891032473,0.07758655179278293,0.03372372025983376,9.799998718404193
1727705526.1127563,4.2094158975475035e-08,5.806220970932329e-07,0.9977509584533505,0.06703002987528528,6.53791565012995e-07,-1.5194488404198335e-07,-0.12919629560970539,0.001363845192024071,1.7203696286583612,9.799997866160341
1727705526.1216762,3.0406538163188845e-08,5.903911494245194e-07,0.9989404650234213,0.04602116185452937,5.62831204905217e-09,-1.0089549124127474e-07,-0.0863098675979059,0.03672193586299988,-0.0009664524910695783,9.800000006991484
1727705526.1322627,4.356840084753077e-08,5.839495154599109e-07,0.9975885589066886,0.06940509446815141,1.8303037672199056e-07,-1.951839331769129e-07,-0.1755524831520262,0.29466035335822127,0.4834700633284253,9.799999025036827
1727705526.1532838,3.1182798934539687e-08,5.909269621396625e-07,0.9988800522328183,0.04731428168124252,6.234914105258119e-09,-1.0111270820132798e-07,-0.08630222499033736,0.03540755548752519,0.003661968019020786,9.79999978919944
1727705526.1637232,4.530934200428691e-08,5.849155854372909e-07,0.9973818846390334,0.07231442590206921,1.8200672343685617e-08,-2.321000491508251e-07,-0.1966974323776805,0.08901146873810799,0.00507513080837848,9.799999637433432
1727705526.1957154,3.1936440942116906e-08,5.909628076995243e-07,0.9988179652354607,0.04860732786879002,4.384573522164861e-09,-1.0115705626424609e-07,-0.08630241257558054,0.03540851644936602,-0.001000573854915317,9.799999999381361
1727705526.2359948,3.272591364201868e-08,5.909034247121092e-07,0.9987487946484963,0.05000845116403113,4.1161680679705386e-09,-1.1070785476676562e-07,-0.0943822116004066,0.04496227100234737,-0.0011583895327258664,9.800000036054382
1727705526.428315,4.680162034218296e-08,5.814721722500551e-07,0.9971697516846489,0.07518301885954642,-1.5650287405887708e-07,-2.2270347215960364e-07,-0.18754803592165398,0.02378905145966395,-0.5004621975314261,9.80000786768827
1727705526.4471776,4.898630316214032e-08,5.810938861511556e-07,0.9968817282058688,0.07891020193194187,-7.989164247572247e-08,-2.19786024461751e-07,-0.18822657211938265,0.09144754092820087,-0.2816019156910229,9.799998340694097
1727705526.4784682,5.067277976208204e-08,5.812134425683473e-07,0.9966541901556122,0.08173386840790292,2.147179834195782e-08,-2.2181844518331146e-07,-0.1889292876516279,0.06568881463257728,-0.005560799046356089,9.80000003586399
1727705526.489848,3.3777426140408425e-08,5.87483322614829e-07,0.9986277685686444,0.05236964620143353,-1.2153971173220413e-07,-1.5842258856793583e-07,-0.1438157790004426,0.2897713970221614,-0.3344496684785624,9.800002143002772
1727705526.506469,5.2401228107245886e-08,5.818077994859099e-07,0.9964157596658043,0.08459097995221948,1.0270482223923875e-07,-2.2540231780046359e-07,-0.19552492240995994,0.1570848607422526,0.23373666952319969,9.800001341126153
1727705526.5539582,5.476980425804868e-08,5.820764305603669e-07,0.996073283537968,0.08853255797473036,1.936517886371724e-08,-2.3316052875641092e-07,-0.19804971904662666,0.06938071278445877,-0.005164957842994081,9.799999997497938
1727705526.5862243,5.6550356250939845e-08,5.822095067604035e-07,0.9958058626051199,0.09149144222784339,1.871274084880604e-08,-2.3327745285542673e-07,-0.19806461080615542,0.06885846443210113,-0.005331334958844351,9.80000000187392
1727705526.8310874,5.8214710480193436e-08,5.81976176953846e-07,0.995576973005674,0.09394940564217158,-1.7628498361940815e-08,-1.7558784210660747e-07,-0.13133278380529229,-0.405199195108309,-0.16516163117627258,9.80000020262825
1727705526.8414402,5.948784458675182e-08,5.81257362588434e-07,0.9953697769977443,0.09611975363638436,1.9076330378909566e-08,-1.2373867389879005e-07,-0.10677453778858423,0.030840716567346004,-0.0036447324494333286,9.800000059498046
1727705526.871787,6.042825275100438e-08,5.814595966320488e-07,0.9952147444394861,0.0977118848958834,1.8967125824302693e-08,-1.2340605711918022e-07,-0.10662857682039209,0.03596513798248877,-0.0015720521615817235,9.799999997853549
1727705526.9553657,6.146196232155943e-08,5.824364418944892e-07,0.9950509504907215,0.09936601998252947,3.6706491038191596e-08,-1.311132427698708e-07,-0.11367813733227984,0.059906018266314635,0.05580682383492154,9.799997532333007
1727705526.9870253,6.247134597871477e-08,5.826044890494378e-07,0.9948792814774345,0.10107034820658384,1.63123972051863e-08,-1.3294220697787405e-07,-0.11425864943374626,0.03964506229350234,-0.0015617574421892676,9.799999991315989
1727705527.0369477,6.381903825195223e-08,5.827919604462019e-07,0.9946456969312503,0.10334378344053452,1.5589127775130563e-08,-1.3309334041686274e-07,-0.11427135071914385,0.03919947335147205,-0.0017806315221179528,9.799999998541104
1727705527.2225378,6.470230161597498e-08,5.821398553530907e-07,0.9944872758410674,0.10485732301498901,-3.284248146936911e-09,-1.1025893160039032e-07,-0.09269611697671654,-0.032789872835803674,-0.06498246474928902,9.800002482342666
1727705527.2324402,6.538618173909892e-08,5.815840478481356e-07,0.9943558566950772,0.10609632536453112,1.5060857766803633e-08,-9.4448362158043e-08,-0.08191433285409823,0.018927141523156412,-0.009191066711671329,9.800000318919995
1727705527.2713647,6.633927305016125e-08,5.818308632348411e-07,0.9941811690187677,0.10772095046059182,1.6936988469962256e-08,-9.387560001647183e-08,-0.08167815669527492,0.027216514740724326,-0.0009211675152478733,9.799999997519828
1727705527.5305622,6.68596368392086e-08,5.807813195444384e-07,0.994081888173286,0.10863332640351281,-2.5017956823397153e-08,-5.8110595505140516e-08,-0.04367158186485015,-0.18447242799368907,-0.148867094433551,9.80000343543056
1727705527.536292,6.719880438811317e-08,5.809916010807127e-07,0.9940185359434919,0.10921149298684135,1.8392064237889254e-08,-4.192278954346282e-08,-0.03819184149357069,0.00816855411160045,-0.0011607703912904204,9.800000013878552
1727705527.5798814,6.762451347711437e-08,5.813105587957703e-07,0.993935065837434,0.10996856322783133,1.779095027490351e-08,-4.171123212010893e-08,-0.03807207572987875,0.012380905820073588,-0.00019817410543783554,9.79999999651521
1727705527.6119163,6.79160582337508e-08,5.812930010425793e-07,0.9938714441811753,0.1105420844786349,-3.2484290652889086e-08,-4.237552605009435e-08,-0.03926489034137884,0.0290630709954273,-0.13580465886610452,9.799999175940423
1727705527.641003,6.824560598668733e-08,5.814806433080475e-07,0.993805497951186,0.11113339840773473,1.7164249180941852e-08,-4.384244992845451e-08,-0.03971293460068454,0.013227648741577794,-0.0005466999919813098,9.80000001381583
1727705527.6804242,6.852977184751624e-08,5.813754257226679e-07,0.9937466604905585,0.11165829464719512,9.16240878892525e-09,-3.59587879949861e-08,-0.032132291063502655,-0.012247068461302371,-0.02610886064820888,9.800001029246546
1727705527.9060895,6.85198278347383e-08,5.787655981797571e-07,0.9936997498955749,0.11207500638916779,-1.6516632603861997e-07,-9.866404529216855e-09,-0.002652626429208706,-0.20967824621865858,-0.545245460360196,9.800005010311349
1727705527.9127176,6.84845290471268e-08,5.789571409980945e-07,0.9937039880491962,0.11203742292101565,2.1990880476700077e-08,7.023096659808024e-09,0.0031379438445293456,-0.005483813180870904,-0.002098471313461865,9.800000063012153
1727705527.9449573,6.844124864296992e-08,5.792947718037043e-07,0.9937094474895176,0.11198899039520172,2.1861212616060093e-08,7.288096194193271e-09,0.0032625444225040275,-0.0010903737528501977,-7.659408451946582e-06,9.799999995803901
1727705528.0214221,6.838352137831493e-08,5.79730209886542e-07,0.9937167582980966,0.11192410051986879,2.1001947243426017e-08,7.161725943293206e-09,0.003265266353077194,-0.0009944103444928646,1.070629886563277e-05,9.799999995752772
1727705528.056079,6.834069758486421e-08,5.80045607437198e-07,0.9937222390601783,0.11187542892380414,2.0378946129221847e-08,7.0642044467401964e-09,0.00326528237420677,-0.0009938464626923725,1.079812029082186e-05,9.799999995881322
1727705528.0851588,6.81803302359549e-08,5.796566583114356e-07,0.9937398601580709,0.11171880026511605,1.8754152701154914e-08,1.6332755732239697e-08,0.01137168782789661,-0.009769670049640775,-0.007731968266040362,9.800000305427364
1727705528.291577,6.75921031745261e-08,5.763380594364854e-07,0.9937789393298915,0.1113706413020023,-1.7552296588391603e-07,2.9987021058504406e-08,0.029813800478326484,-0.18185753499738533,-0.5830213014214416,9.800007823705428
1727705528.3132432,6.724581440154802e-08,5.763066881012392e-07,0.9938376027880452,0.11084592587991171,1.971755597968276e-08,4.5627475856543153e-08,0.03648297726280448,-0.01956093745987887,-0.025235127685224238,9.800001066338929
1727705528.3468676,6.691925574811153e-08,5.7675430885136e-07,0.9938984980664551,0.11029857451892783,2.7531086820736096e-08,4.630069852525295e-08,0.03674289112657636,-0.010341637231373373,-0.00026038732831422997,9.799999997854641
1727705528.6247003,6.620697782650775e-08,5.737508493536393e-07,0.9939586647817447,0.1097550577648142,-6.666905556215093e-07,4.653543339617631e-08,0.035872183555811135,-9.594049881628439e-05,-1.9207360520770818,9.79998854154316
1727705528.6371083,6.430794310168093e-08,5.608759791242583e-07,0.994032539316728,0.10908396206234516,-6.403802025810594e-07,4.1306895881213695e-08,0.03251841444419961,0.002634479959926216,-1.9205755623283183,9.800002296254545
1727705528.667142,6.296120912262927e-08,5.515515603762541e-07,0.9940830491591056,0.10862270192840556,-6.213091722450816e-07,3.773236735497321e-08,0.030156928805256562,0.004333304864362485,-1.9204509582434595,9.800002256161347
1727705528.6985712,6.167661035054394e-08,5.425023824755064e-07,0.994129651554409,0.10819535988207124,-6.028039253971657e-07,3.443498462786031e-08,0.027923052722291203,0.005759820148255368,-1.920327850385418,9.800002217264932
1727705528.7566392,6.030172974681654e-08,5.331612335734145e-07,0.9941750503732005,0.10777740586577489,-1.6013486922952158e-07,2.0887577066566846e-08,0.006593266788776512,0.23978252309853093,-0.7260276731135024,9.800008271033805
1727705528.7940528,6.040408628449058e-08,5.346498616286977e-07,0.9941763851402914,0.10776509281345842,1.1253737280456032e-07,2.397149006660322e-09,0.00014079526239703423,0.00513138530484748,-0.001375379231962266,9.800000070214804
1727705528.9992433,6.055367701918521e-08,5.363084993305159e-07,0.99417641365625,0.1077648297419247,1.0993098335198441e-07,1.9501652150688425e-09,3.008999995316187e-06,0.00010972417523653807,2.0531835244931457e-05,9.79999997826171
1727705529.0068014,6.074708597274807e-08,5.384443351003834e-07,0.9941764142753375,0.10776482403056692,1.0560125290147013e-07,1.8651108972543835e-09,1.7849227154018108e-08,6.965168046520407e-07,1.0738912703371735e-05,9.799999978917478
1727705529.0368538,6.088713654897613e-08,5.39990797717086e-07,0.9941764142789531,0.107764823997203,1.0246449890516814e-07,1.8094974527144565e-09,3.8230392840922585e-10,5.931881137269907e-08,1.0678695392305152e-05,9.799999979546776
1727705529.069178,6.102302697770161e-08,5.414913255393462e-07,0.9941764142790307,0.10776482399647835,9.942133090531556e-08,1.7558581985568912e-09,8.935511738673496e-12,4.5210697035129136e-08,1.070548549870147e-05,9.799999980150279
1727705529.1434171,6.115488347104372e-08,5.429472825569192e-07,0.9941764142790328,0.10776482399645132,9.646819293328951e-08,1.7037434697741612e-09,9.285250990485311e-13,4.443049267254635e-08,1.0733342353541067e-05,9.799999980747357
1727705529.185629,6.132461688987798e-08,5.44821508660714e-07,0.9941764142790335,0.10776482399643655,9.266608940531498e-08,1.6364690097815922e-09,7.341939685223506e-13,4.377840857692537e-08,1.0769277947259668e-05,9.79999998148476
1727705529.380902,6.143291976121701e-08,5.461814827362928e-07,0.9941614173627168,0.10790308719889286,9.012108178348538e-08,-1.0722158588294523e-08,-0.027814830710906537,0.38946758256911385,0.053773485759878684,9.799999963481081
1727705529.388145,6.196572004128651e-08,5.474550987028458e-07,0.9940291547560964,0.10911479961296205,8.711064835050002e-08,-1.002101754337557e-07,-0.10734403586776714,0.3624861759386578,0.04785394746659687,9.799999927004103
1727705529.4231117,6.366204902573593e-08,5.490066691493528e-07,0.9936805088387328,0.11224547364455956,8.473493628574739e-08,-1.8712228385451878e-07,-0.17163824590112933,0.044335225724485894,0.0035125839617914574,9.799999904714609
1727705529.6892066,6.520413047009357e-08,5.500764653998228e-07,0.9933728502200097,0.11493641914322378,8.080398460500364e-08,-2.015652324870918e-07,-0.19644348195354616,0.3325708318522336,0.03756619162225371,9.799999954674352
1727705529.6947098,6.711929139590802e-08,5.510507267832474e-07,0.9929491277059765,0.11854125774443375,7.82136101886246e-08,-2.787601188892086e-07,-0.2641991660579882,0.30999356403940287,0.02715689499814334,9.799999951822407
1727705529.7386212,7.038949366484235e-08,5.522846069429392e-07,0.9922580359731497,0.12419335749707977,7.760005644610861e-08,-3.1922015425069793e-07,-0.2867404831735947,0.006535343569702302,-0.010759199254947253,9.799999992984002
1727705529.768997,7.291680788820532e-08,5.53117814914966e-07,0.9917144637464124,0.12846175460367376,7.52546558425097e-08,-3.202538700244264e-07,-0.28687216334839166,0.0017377880953814244,-0.011496857204187876,9.799999997658368
1727705529.799365,7.544854285842084e-08,5.53905508668866e-07,0.991152497385628,0.13272801861671707,7.299554530877225e-08,-3.2090124950873693e-07,-0.28687497850198396,0.0016352168267608198,-0.011511639669261189,9.79999999818215
1727705529.8313515,7.802070930479396e-08,5.54616179623723e-07,0.99052706659658,0.1373176257414193,6.808137594131102e-08,-3.563669182778868e-07,-0.33072870272419486,0.3091758345425393,0.017775853484295178,9.799999964915976
1727705530.0738952,8.214702117773512e-08,5.554725489029907e-07,0.9895370660942802,0.1442788786524526,6.450528933149991e-08,-3.9273916136256084e-07,-0.32777759200475004,-0.5159149846061302,-0.0998928217845372,9.799999923431244
1727705530.0753102,8.476330176527037e-08,5.56051222199749e-07,0.9889806662012568,0.1480447293212489,6.275684558930323e-08,-2.678626854219227e-07,-0.21678664278472587,-0.5171207798609748,-0.08473068526180522,9.800000085238056
1727705530.106153,8.645297524130026e-08,5.567362017527151e-07,0.988654833157064,0.1502052624739243,6.120683554181115e-08,-1.4685076747490622e-07,-0.11097205769138566,-0.4815518582984622,-0.07054694913593332,9.800000070957081
1727705530.1424162,8.735958579224912e-08,5.578719395268461e-07,0.9885504459344787,0.15089074140723396,6.585410710834412e-08,-9.795766527591943e-09,-0.00370341820725637,-0.12903376187456875,0.00017460512493247597,9.80000004841487
1727705530.207119,8.749278509344503e-08,5.58740669563565e-07,0.9885492647373113,0.1508984797372092,5.773466142774046e-08,1.10856664985998e-09,-8.90172886647265e-05,-0.003244666923095756,-0.0004134817746763245,9.799999988290567
1727705530.2416863,8.758929561023717e-08,5.595858182592375e-07,0.9885282402073037,0.15103614902509466,5.621682744604664e-08,-1.1937932096794881e-08,-0.02782152828335023,0.38946532890545005,0.05369872757971616,9.799999968420419
1727705530.4631681,8.845338436389925e-08,5.605603858042476e-07,0.9882422341130616,0.15289632668871722,5.359107047652275e-08,-1.3329635238410997e-07,-0.13260621041013643,0.3539666266448565,0.04526198319130864,9.799999935158818
1727705530.465548,8.987288353155322e-08,5.611686491534582e-07,0.9878351733809593,0.15550456659238998,5.781412245420459e-08,-2.0979099633282634e-07,-0.1893763739286841,0.11338189097626143,0.02444633717116631,9.80000005896513
1727705530.48936,9.160362486280805e-08,5.616880955868194e-07,0.9873830303847551,0.15835009096269542,5.122790012834185e-08,-2.1878308858497534e-07,-0.1924030209342718,0.0031449407066463553,-0.00479179417635914,9.799999992782547
1727705530.7846253,9.334662915723409e-08,5.621729435569522e-07,0.9869217735520234,0.16119991590755772,4.967402381079328e-08,-2.192660133614053e-07,-0.19246773010252238,0.0007871433745358778,-0.005168111801931944,9.799999995850081
1727705530.7949512,9.601948887042625e-08,5.626942297055345e-07,0.9861059387120467,0.16611766202456468,4.6460736721044926e-08,-3.0836641938397357e-07,-0.28242843728154005,0.3085712637746002,0.024572277064338965,9.799999960800367
1727705530.8237028,9.870465769115682e-08,5.630146556180314e-07,0.9852875806162485,0.17090460345775493,6.11912281375586e-08,-3.806663104795885e-07,-0.3406423614932627,0.20314815792949756,0.046245073533953025,9.80000024747088
1727705530.8538854,1.0175935463835663e-07,5.632313564260007e-07,0.9843819677885468,0.17604585054019467,4.759655013032971e-08,-4.001416989774269e-07,-0.34933764981204934,0.014515528481128201,-0.014884209266223424,9.799999994987019
1727705530.8981705,1.0588490210865274e-07,5.63426055815534e-07,0.9831262474068574,0.18292835116345985,4.5522475180171854e-08,-4.0195410229594884e-07,-0.34988092800427084,0.0027175311472544543,-0.017087902443526447,9.800000010347848
1727705530.953022,1.0903083769943659e-07,5.635188964273549e-07,0.9821020244900874,0.1883497106239938,4.842448010075173e-08,-4.326060763278502e-07,-0.3817497641346665,0.14192059173090077,0.008824327758326235,9.800000131397583
1727705531.1915047,1.1242693176424373e-07,5.635430059640619e-07,0.9809925265933348,0.1940455172574077,4.37635150812972e-08,-4.4624523616772093e-07,-0.38776459563725196,0.011349149730262548,-0.01974286112568932,9.800000010006709
1727705531.1981544,1.1730866181342405e-07,5.633282169223937e-07,0.9792365211207956,0.20272107858560384,3.695162547866025e-08,-5.341407675070727e-07,-0.4754612007783479,0.3112861486515249,-0.009488428483674928,9.800000002007572
1727705531.2269478,1.216673291574479e-07,5.632235286330837e-07,0.9776561820739265,0.21021034620660722,5.106594169111995e-08,-5.966195117309612e-07,-0.5198989001980487,0.09391320532478986,-0.00786421966163367,9.799999603216893
1727705531.25956,1.2624516325490574e-07,5.6290993636632e-07,0.9759764954206022,0.2178758370866004,4.360852123367441e-08,-6.057106114845183e-07,-0.5237374795258629,0.01076325282080667,-0.0374089608261845,9.800000028491551
1727705531.359982,1.3052510402106395e-07,5.624459058321348e-07,0.9744845078869457,0.2244547702500519,3.226874927818175e-08,-5.018430994222579e-07,-0.4127330908140142,-0.5148438187734726,-0.11551951510986988,9.80000012935011
1727705531.4017365,1.3475454100289378e-07,5.621130352824112e-07,0.9730269316983371,0.23069154771986233,3.114636328898702e-08,-3.3039036115240756e-07,-0.26475176336385886,-0.5168670039492115,-0.09058736984146369,9.800000101007248
1727705531.610896,1.3682247568200227e-07,5.620977676162952e-07,0.9723597281793481,0.23348781341785158,3.0497719882138273e-08,-2.03096185544307e-07,-0.15583583070792859,-0.49708219721291247,-0.07589633439523695,9.800000085575993
1727705531.619002,1.4046825663823807e-07,5.714959842741958e-07,0.9718415120742854,0.23563547145712144,6.414909135191885e-07,-1.7118334182280756e-07,-0.1436862934722946,-0.043659856344856585,1.7194378425853682,9.799997483878478
1727705531.646302,1.4464865503055018e-07,5.816549586544043e-07,0.9711826112259401,0.23833660157853453,2.8487969950851164e-07,-1.667774730107799e-07,-0.14527707148887098,0.1766355481806736,0.8299028787437559,9.79999236669916
1727705531.928906,1.4656860257279238e-07,5.833532986076229e-07,0.9705475174252641,0.24090976821062027,9.476258233137388e-08,-2.2218091841947114e-07,-0.19046723167056961,0.194040738896132,0.31806756994708535,9.799998499094713
1727705531.9319057,1.5042800721114464e-07,5.917136385172194e-07,0.969887254234084,0.2435543349519707,5.967090710215016e-07,-2.2073778668565334e-07,-0.17746158452596378,-0.031153542300738475,1.7148384460984976,9.799997786718027
