timestamp,orientation_x,orientation_y,orientation_z,orientation_w,angular_velocity_x,angular_velocity_y,angular_velocity_z,linear_acceleration_x,linear_acceleration_y,linear_acceleration_z
1727705951.7054057,6.132400791909353e-07,-1.3165519695774888e-09,-1.4274793684321274e-06,0.9999999999987931,-3.8584223424838624e-08,3.995493614318591e-10,1.4912154295628505e-14,2.5686477684105e-08,1.2009713753406933e-05,9.799969111493859
1727705951.7075813,6.126728151680118e-07,-1.3106789093420946e-09,-1.4274793679880382e-06,0.9999999999987934,-3.7438064266970685e-08,3.876711901342178e-10,1.2250718770555797e-14,2.5576788652330086e-08,1.199888070234387e-05,9.7999700289195
1727705951.7343261,6.121224024658752e-07,-1.304976288301206e-09,-1.4274793680990605e-06,0.9999999999987939,-3.63253939906534e-08,3.764502615284443e-10,9.805126349504728e-15,2.547060483387308e-08,1.1988364674342493e-05,9.799970919101069
1727705951.7651424,6.115883460302759e-07,-1.2994433113008435e-09,-1.4274793677659936e-06,0.9999999999987941,-3.5247004130732997e-08,3.6521251541107315e-10,9.512285375616149e-15,2.5367704470669743e-08,1.1978205333899172e-05,9.799971782806757
1727705951.8060338,6.109008724619671e-07,-1.2923222748654597e-09,-1.427479367543949e-06,0.9999999999987945,-3.3856823156433264e-08,3.50513385479481e-10,1.633717000010668e-14,2.5221497422875992e-08,1.1965056901065568e-05,9.799972894692957
1727705951.8681433,6.104031080970994e-07,-1.287166909806847e-09,-1.427479367155371e-06,0.9999999999987947,-3.285120946747777e-08,3.4031569360025393e-10,1.0870600826909468e-14,2.5126189378606575e-08,1.1955562996707561e-05,9.799973699738157
1727705952.1215007,6.099201210323276e-07,-1.2821665541867024e-09,-1.4274793669888375e-06,0.999999999998795,-3.1875779886180804e-08,3.2991956488788814e-10,1.415600012327912e-14,2.5028594179692013e-08,1.1946338721760576e-05,9.799974480893528
1727705952.1230922,6.092983776079758e-07,-1.2757310786630974e-09,-1.427479366822304e-06,0.9999999999987954,-3.062037891439017e-08,3.1692158066259544e-10,1.0417701254730159e-14,2.490909950319459e-08,1.1934488242412682e-05,9.799975486419669
1727705952.1521852,6.088482015655423e-07,-1.2710710376072882e-09,-1.4274793666002594e-06,0.9999999999987956,-2.971082966071143e-08,3.0760354914043893e-10,7.865217748094353e-15,2.4824315462129677e-08,1.1925888467866818e-05,9.7999762145114
1727705952.1837783,6.084113930384487e-07,-1.2665490143766232e-09,-1.4274793665447483e-06,0.9999999999987961,-2.8828219032443134e-08,2.9857449120646947e-10,7.178222663780796e-15,2.4736198134941753e-08,1.1917542634996137e-05,9.799976920966147
1727705952.285953,6.078490984301971e-07,-1.2607279041281985e-09,-1.4274793662116814e-06,0.9999999999987964,-2.7692005849192602e-08,2.8653400082636985e-10,1.452610432569629e-14,2.4616666760226457e-08,1.1906815440097557e-05,9.799977830371546
1727705952.3146632,6.074419704361026e-07,-1.2565091750644932e-09,-1.4274793662671925e-06,0.9999999999987967,-2.686968133642758e-08,2.784397453156907e-10,7.439191075474223e-15,2.454499744144461e-08,1.1899050845944045e-05,9.799978488829849
1727705952.509684,6.070469371029542e-07,-1.2524153681621428e-09,-1.4274793659341256e-06,0.9999999999987967,-2.6071252640629917e-08,2.7009955217233137e-10,9.989296655759312e-15,2.4464429905640078e-08,1.1891509829542592e-05,9.799979127728191
1727705952.5107074,6.066636374856871e-07,-1.2484450219924282e-09,-1.4274793658786145e-06,0.9999999999987972,-2.529686810623322e-08,2.619250596638496e-10,1.1234313115478728e-14,2.438619788516681e-08,1.1884189594414106e-05,9.799979747657366
1727705952.5377429,6.061702301860525e-07,-1.2433321350449972e-09,-1.4274793656010587e-06,0.9999999999987974,-2.429913762159202e-08,2.5172011676364526e-10,8.442798266411503e-15,2.4291039584006246e-08,1.1874754973822152e-05,9.799980545693893
1727705952.7822714,6.058129851373378e-07,-1.239634518062952e-09,-1.4274793654345252e-06,0.9999999999987976,-2.3577333390485554e-08,2.441794949396545e-10,4.570117010838338e-15,2.4224499985216198e-08,1.1867950896488012e-05,9.799981123504118
1727705952.7846613,6.054663461063681e-07,-1.2360474216889839e-09,-1.4274793652679918e-06,0.9999999999987977,-2.287737670124627e-08,2.3668273108809655e-10,9.987679161715612e-15,2.4148857137491795e-08,1.1861340410919861e-05,9.799981684143761
1727705952.819434,6.050201092336747e-07,-1.2314298436804577e-09,-1.4274793651569695e-06,0.9999999999987981,-2.197677505863321e-08,2.2709559798935225e-10,1.5295139497801687e-14,2.4053890734141064e-08,1.1852818884175229e-05,9.79998240586644
1727705952.8495789,6.046970105307355e-07,-1.2280861735640493e-09,-1.4274793651014583e-06,0.9999999999987983,-2.1323866975174212e-08,2.2067548078424025e-10,6.483395438810719e-15,2.4000556472266858e-08,1.1846650323439344e-05,9.799982928429621
1727705952.879645,6.043835068389017e-07,-1.2248406648569536e-09,-1.4274793649349249e-06,0.9999999999987985,-2.069030750308502e-08,2.1406712818931705e-10,1.1345960325131782e-14,2.3931072903515676e-08,1.1840662801428135e-05,9.799983435470011
1727705952.925187,6.039799441924244e-07,-1.2206624927692782e-09,-1.4274793648794137e-06,0.9999999999987987,-1.987438364543903e-08,2.0581913472248834e-10,4.337555102881801e-15,2.3860822021858295e-08,1.1832954259554918e-05,9.799984088194902
1727705953.144323,6.036877418151014e-07,-1.2176352265924878e-09,-1.4274793647128803e-06,0.9999999999987988,-1.9284685835608778e-08,1.9987631623667406e-10,4.970092609396271e-15,2.380069511160537e-08,1.1827390625832692e-05,9.799984560779562
1727705953.1452394,6.03404223482845e-07,-1.21469530393086e-09,-1.427479364601858e-06,0.9999999999987991,-1.871188394207113e-08,1.941138515696917e-10,3.151327066506388e-15,2.374847974358276e-08,1.1821990625294832e-05,9.799985019321987
1727705953.1645415,6.031291263244373e-07,-1.2118435608631414e-09,-1.4274793644908357e-06,0.9999999999987992,-1.815553910461687e-08,1.8807341731752243e-10,1.1655416155251902e-14,2.3680992062026727e-08,1.1816716117662182e-05,9.799985464283841
1727705953.2061234,6.027750114456807e-07,-1.2081744431217816e-09,-1.427479364268791e-06,0.9999999999987994,-1.743943407480933e-08,1.807355905709932e-10,2.2151424785444257e-15,2.3625988746376666e-08,1.1809961021393855e-05,9.799986037042599
1727705953.2919137,6.025186100820287e-07,-1.2055224052398361e-09,-1.427479364268791e-06,0.9999999999987996,-1.6921595537317042e-08,1.7491803674151017e-10,9.942469964126118e-15,2.3563085786408306e-08,1.1805064570660428e-05,9.79998645176638
1727705953.3259933,6.022698259573169e-07,-1.2029483921742802e-09,-1.4274793641577688e-06,0.9999999999987996,-1.6419274458131227e-08,1.6980878332373723e-10,8.9604275545133e-15,2.351313439411028e-08,1.180032742255502e-05,9.79998685415159
1727705953.5432668,6.01949565238386e-07,-1.1996321407629256e-09,-1.4274793641022576e-06,0.9999999999988,-1.5772581034121604e-08,1.6334256087495381e-10,5.547994051457217e-15,2.3454347715107222e-08,1.1794210266766666e-05,9.799987372151227
1727705953.5457442,6.10991157140748e-07,-1.2063188772458513e-09,-2.4198728859614604e-07,0.9999999999997841,5.967139302675966e-07,-3.4415470469239145e-10,0.00011761090997322375,0.0008418889397828836,1.7309125279220912,9.799985509794032
1727705953.5678887,6.197634763146076e-07,-1.2116878228557954e-09,2.6263734383968895e-06,0.999999999996359,5.789349371661625e-07,-1.8972599813109035e-10,0.00022718093332950833,0.0008661268961891399,1.73075963438504,9.79998584716462
1727705953.8659093,6.282629022493255e-07,-1.231611227185922e-09,-0.00012632193740491626,0.999999992021187,1.4043014063454634e-07,-1.624613441070262e-08,-0.0203059315715809,0.20098485586157952,0.6019070365160162,9.799982338853065
1727705953.8705502,6.36520077207918e-07,-1.4330701090017048e-09,-0.00041604755910962243,0.9999999134520379,5.44914631287701e-07,-2.499088164785133e-08,-0.01883302902717591,-0.0019171345292691821,1.7294874391901276,9.799986605412787
1727705953.8914428,6.375553255355451e-07,-1.5902960775026856e-09,-0.0006288802154130191,0.9999998022546145,-7.96585666808091e-08,-1.7681459113382244e-08,-0.013639535096754484,-0.0009988601257843507,0.021569126038773135,9.799988263627236
1727705953.9263208,6.362720597133838e-07,-1.7202089215602578e-09,-0.0008319925963905517,0.9999996538938973,-8.511591736463749e-08,-1.7299190431829827e-08,-0.01352909029436457,0.002926769342388715,3.444131858687936e-05,9.799989578905436
1727705953.9669995,6.345446491372838e-07,-1.888610207357119e-09,-0.0010910213056000706,0.9999994048358769,-8.333832228717784e-08,-1.5761674395864006e-08,-0.012235256103750916,-0.0011549451037640534,-0.005185715127926228,9.799990202431298
1727705954.031621,6.333429802840879e-07,-2.00355171937572e-09,-0.0012731305151255645,0.9999991895688167,-7.922585827796904e-08,-1.54093717749032e-08,-0.012129356978058174,0.002613469348607826,-3.492235228874221e-05,9.799990290025757
1727705954.062877,6.369976949626077e-07,-2.1374409123098813e-09,-0.0014863849871976642,0.9999988953290219,-4.227057492178223e-08,-1.9788159752996242e-08,-0.015858703406857657,0.01616212356035511,0.1233262183765081,9.799985083935008
1727705954.2733693,6.430967686777304e-07,-2.358607360253335e-09,-0.0018533099208962733,0.9999982826194871,2.262962545825921e-07,-2.7006769391510997e-08,-0.026257645967227544,0.15802804391850483,0.9134243400189601,9.799983709493002
1727705954.2960107,6.419009836933547e-07,-2.6392175768163025e-09,-0.0023025454475271157,0.9999973491385115,-9.561245106220444e-08,-3.943170061339705e-08,-0.030389093673383685,0.012198871906272942,0.002849989156825317,9.799991108421203
1727705954.3291323,6.376306337876253e-07,-2.915749231725464e-09,-0.0027344995736011124,0.9999962612488487,-9.794870993671907e-08,-3.7023231991666143e-08,-0.028603025498339346,0.0065321417293578606,-0.027862823214107175,9.79999272737925
1727705954.4264576,6.359076333679642e-07,-3.2836102280746122e-09,-0.0033058230523766996,0.9999945357518419,-8.443245425897345e-08,-3.6788490860166235e-08,-0.028562649713041684,0.007954784756923386,-0.00011684823811777526,9.799991818628532
1727705954.4557245,6.346658819235442e-07,-3.558023180626694e-09,-0.003734256948144443,0.9999930276380142,-8.192218681583016e-08,-3.670292004322763e-08,-0.028562411110252754,0.007963219116817216,-0.0001047890522686815,9.799992061160479
1727705954.4877584,6.286330007468006e-07,-3.816337304252955e-09,-0.004203635528967187,0.9999911646849408,-1.0572103765197322e-07,-4.185366525637994e-08,-0.03355597453343651,0.02507768019099325,-0.09654971948568031,9.79999674662575
1727705954.6740842,6.206829520854644e-07,-4.0965956240699735e-09,-0.004701403808294424,0.9999889483398534,-7.540953965898597e-07,-4.074538513017089e-08,-0.0324818649899601,-0.0029864230370966935,-1.9236272599483275,9.799995048537411
1727705954.6964626,6.059744353425305e-07,-4.403310796351845e-09,-0.0053172558137052905,0.999985863295199,-7.242938242334696e-07,-3.626663650985647e-08,-0.029802890313742156,-0.005360499852898417,-1.9232606090412177,9.799995281176209
1727705954.7295756,5.953257742604585e-07,-4.600385526776561e-09,-0.005745288810001858,0.9999834956918715,-7.027164911512566e-07,-3.320438744404314e-08,-0.027913746895383316,-0.006867154117947845,-1.9229917604109663,9.799995449276855
1727705954.9733884,5.881806920303229e-07,-4.811649725943447e-09,-0.006331256162627641,0.9999799573966757,-2.4344226731059055e-07,-5.152803625451066e-08,-0.054336015225213724,0.26446901822590213,-0.6652365002870574,9.799998880223638
1727705954.9900777,5.848724335494208e-07,-5.752311432525014e-09,-0.008389604510973536,0.9999648066486178,-1.4809499095910392e-07,-1.4128636698041736e-07,-0.1302165733751078,0.2524708550335676,-0.4264658730186039,9.799994060161005
1727705955.024943,5.827670544152251e-07,-7.017543420816874e-09,-0.010862067456320457,0.9999410060049715,-1.3543192681424694e-07,-2.018310610003268e-07,-0.18185955169489493,0.2395710403172352,-0.4085215170775066,9.79999424525306
1727705955.0537777,5.822848618072839e-07,-8.710533881263724e-09,-0.013872713505735268,0.9999037692796484,2.209949408258291e-08,-2.3653734216425435e-07,-0.20296511822825453,0.01763390159764993,-0.01128049122914777,9.799994224516395
1727705955.1067297,5.827340571307575e-07,-1.110502770493884e-08,-0.01793982905030972,0.9998390683171496,2.3976166539827626e-08,-2.380219746406776e-07,-0.20342287430567796,0.0009212343553444571,-0.005771616055787886,9.799994117517416
1727705955.137415,5.830553898123865e-07,-1.297181337482701e-08,-0.021187771277808465,0.9997755139769822,2.346170145501249e-08,-2.5484376350516755e-07,-0.21813340161534453,0.012657329617245373,-0.004997986258988782,9.79999428842736
1727705955.3484747,5.833426623475572e-07,-1.495409010927818e-08,-0.024798749363058425,0.9996924637255638,2.133517399081326e-08,-2.935999637824518e-07,-0.2630460881426642,0.3103983884133041,0.027683759317641995,9.799994421421317
1727705955.3599148,5.835901713393875e-07,-1.7453571073174777e-08,-0.02940055512575629,0.9995677102417606,2.0680360391443405e-08,-3.710531617225488e-07,-0.32882645845285896,0.30908771546446623,0.01839538349620824,9.799994597795942
1727705955.3990166,5.840105738492547e-07,-2.163820077979257e-08,-0.036740134187401574,0.999324853358281,2.512249034552186e-08,-4.4025440368897895e-07,-0.37654482135573386,0.038669428648464246,-0.012628275020308367,9.799994793341567
1727705955.4753928,5.842386866832623e-07,-2.498601283830009e-08,-0.042403620304316325,0.9991005619980129,2.3652198202543626e-08,-4.4389511639041984e-07,-0.37809603769680045,0.004991560005311621,-0.01967657146126258,9.799995007049622
1727705955.5130484,5.844355702033103e-07,-2.8343334020426542e-08,-0.04807043430892338,0.9988439484449055,2.2919341056940176e-08,-4.4431335065256494e-07,-0.37818931401941924,0.0029654402121460236,-0.01999668316949677,9.799995157204984
1727705955.5540242,5.846523837364789e-07,-3.3031753069030675e-08,-0.05614422682925657,0.9984226689100173,2.2795414112100092e-08,-4.793895225782898e-07,-0.4083720672969279,0.019134136271752773,-0.02117412236962508,9.799995349332189
1727705955.7102914,5.84714489194449e-07,-3.6710002811247734e-08,-0.06259391355033789,0.9980390783862672,1.6574381951854604e-08,-5.179867881505219e-07,-0.45266403308428466,0.31103067105617777,-0.004152037464600564,9.799995469238125
1727705955.730307,5.846804657538204e-07,-4.0899013303505956e-08,-0.07002513701838675,0.9975452271377037,1.6142965831588433e-08,-5.956414274687048e-07,-0.5184300855274127,0.3119681023514069,-0.01910333983096956,9.799995621504772
1727705955.7876623,5.848903367717241e-07,-4.727244283633682e-08,-0.08088740115669268,0.9967232456072106,2.5648106172096217e-08,-6.458822855985021e-07,-0.5488317147923982,0.021887157696851046,-0.0388646057259241,9.799995791676437
1727705956.039826,5.912693760896212e-07,-5.2708736709829565e-08,-0.08898472438025201,0.9960329908324412,6.659792782169001e-07,-6.395737813883253e-07,-0.5343041023991226,-0.0972019445738744,1.7427383485679622,9.799993699261972
1727705956.0440128,6.005719425580301e-07,-5.838447998257015e-08,-0.09674483947657031,0.995309216291243,6.460688864137308e-07,-6.253136030929524e-07,-0.5122865925889326,-0.06720564535908101,1.748579832388895,9.79999378363651
1727705956.0718083,6.056965235758968e-07,-6.364406296073052e-08,-0.10441189979030074,0.9945341397769155,2.2685525349083671e-07,-6.360003113056504e-07,-0.5228447455511521,0.1949489320622961,0.6609278094784743,9.79999470289965
1727705956.1120026,6.070939338485114e-07,-7.05791987184148e-08,-0.11549163875149271,0.9933084522836402,7.901705884742843e-08,-7.103413355504192e-07,-0.5841868880515224,0.3157351480939627,0.26601498893334985,9.799998051476347
1727705956.1695566,6.076288816679735e-07,-7.629665922320172e-08,-0.12459117709306078,0.9922081629326531,1.3165147582451145e-08,-7.638634860708565e-07,-0.6198602609415859,0.17795223251975892,0.06007924373612244,9.799994215021815
1727705956.2085166,6.090844998081325e-07,-8.245162131319536e-08,-0.13404329781968927,0.9909754761391647,4.6845600274418796e-08,-7.938389315247239e-07,-0.6391578007639435,0.12779091954873306,0.15052824610513912,9.79999362227128
1727705956.4246995,6.136858717293677e-07,-9.122675523050031e-08,-0.14658973118404633,0.9891973770239202,5.76357069987805e-07,-7.877214032634533e-07,-0.6265197689426221,0.035575648484962995,1.626314298171097,9.799994514291582
1727705956.435732,6.192120649864047e-07,-9.810920251940165e-08,-0.15581344433011085,0.9877865004977515,2.160628024275961e-07,-7.905615950214352e-07,-0.6269891635360384,0.26976494697430375,0.7034083528516129,9.799990010417783
1727705956.4647408,6.116783950348651e-07,-1.0306742494020589e-07,-0.16517474451039982,0.9862643173995191,-7.547012643765905e-07,-7.967117791236556e-07,-0.6274860958859629,0.09126910040259748,-2.025057651585942,9.7999995091215
1727705956.5640285,6.027273936950803e-07,-1.0967186801962999e-07,-0.1778742426664489,0.9840532271150081,-2.9652305677022604e-07,-8.123012996855214e-07,-0.6597992694894641,0.26223517908700966,-0.7894994346373455,9.799997994517568
1727705956.597306,5.983260411057753e-07,-1.1523981631580288e-07,-0.18797693917406516,0.9821734420856525,-1.8364649891895696e-07,-8.521821581003414e-07,-0.6998352796955839,0.32735611563127603,-0.4997601946039304,9.799998106190483
1727705956.634469,5.894726792681945e-07,-1.2018504970963508e-07,-0.1984030095616095,0.9801205261581525,-6.827910776284345e-07,-8.596050330592185e-07,-0.701566440823677,0.012348615947218302,-1.9577046458868883,9.79999964005136
1727705956.8360252,5.848135370108342e-07,-1.2568651894366888e-07,-0.20849945324564328,0.9780224833795539,6.549085025711667e-07,-8.184046008122347e-07,-0.6803054617820672,-0.05667509264181784,1.7007520100184776,9.800021346553512
1727705956.8469446,5.953738821343098e-07,-1.3638889564388338e-07,-0.22144826772972037,0.9751721205608439,5.946156457799234e-07,-8.051408486986295e-07,-0.6535199581910108,0.0124483962225198,1.6177865027991656,9.799994561466878
1727705956.8947551,6.025136515173969e-07,-1.4428827463376836e-07,-0.2308390157044189,0.9729919572268986,5.746309383056961e-07,-7.984962374354254e-07,-0.6374007601870388,0.046512798856927655,1.6174548903846264,9.799995256469776
1727705957.212479,5.995811472825548e-07,-1.4989478539938005e-07,-0.24032472978073155,0.970692548779188,-7.512291712770968e-07,-8.215466051950786e-07,-0.650832078665182,0.0967196451343526,-2.0320674639305176,9.799981226047471
1727705957.233134,5.875506428685033e-07,-1.5502582361288998e-07,-0.25228965107437257,0.9676517617203009,-4.310998668748127e-07,-7.353047377880169e-07,-0.5879228751352967,-0.1705580451871758,-1.2231420024752173,9.799999312988046
1727705957.2625535,-5.822728333601621e-07,1.5900197863665027e-07,0.26006402113358984,-0.9655913757441412,-2.4948610078449945e-07,-6.367558158178788e-07,-0.5092193084575679,-0.30190954819970894,-0.7414591766691163,9.799998852745016
1727705957.2918904,-5.776387937195533e-07,1.623026459391195e-07,0.2666409722117919,-0.963795928574919,-2.388110578304818e-07,-5.325006509882535e-07,-0.42711581551596256,-0.3270405226430261,-0.7145070899164081,9.799998633800517
1727705957.3372328,-5.718849425227944e-07,1.6551323078459012e-07,0.273546480815142,-0.9618587852867471,-2.320189557959404e-07,-3.954984284680365e-07,-0.31749730855471175,-0.350427134844805,-0.7029388902003935,9.79999869646035
1727705957.3674233,-5.710093452221896e-07,1.683770661414237e-07,0.2787607664576625,-0.9603605755566927,-4.395403641189065e-09,-4.4152186116788566e-07,-0.38378813106686455,0.34133973383293775,0.009504174941549393,9.799997875246731
1727705957.5883842,-5.667826072140647e-07,1.7088864211643899e-07,0.28478033986232487,-0.9585928009470697,-6.635992708026044e-07,-5.049567996976743e-07,-0.42081770754892345,-0.05731015104270998,-1.8831923879678802,9.799987135839556
1727705957.5910037,-5.602511470276387e-07,1.7277649008321648e-07,0.2908563192326695,-0.9567667435493771,-2.2667957496108874e-07,-4.995243056113657e-07,-0.4323381068085541,0.16251945831279538,-0.6833082995079948,9.799999888926006
1727705957.6247945,-5.560841828057491e-07,1.769859377483759e-07,0.2997901373646235,-0.9540051747965308,-1.2610745750712802e-07,-5.60501276164891e-07,-0.48957342156410016,0.22028704525632908,-0.4250379623830248,9.799998654261039
1727705957.656845,-5.535199559729357e-07,1.8075892815040308e-07,0.30717198316747973,-0.9516540194611791,-1.6713785313163527e-08,-6.063350862127166e-07,-0.5258235892065348,0.09924929841242419,-0.15695421207591137,9.80000040105685
1727705957.686096,-5.524749638244211e-07,1.8524040150909384e-07,0.31471657832799793,-0.9491856906449746,2.982236473259326e-08,-6.153394045544053e-07,-0.5298089934786209,0.01110848383978604,-0.04052520771297099,9.799998286707998
1727705957.7295692,-5.510845180357054e-07,1.912970012937952e-07,0.3249363189878921,-0.9457358979135022,2.9889226857168924e-08,-6.379746287944046e-07,-0.551689821582002,0.09140739241024325,-0.03083851307869957,9.799998295920327
1727705957.9247253,-5.49883496523145e-07,1.959765669683585e-07,0.3328973816350159,-0.9429630604112813,1.8579449726733528e-08,-6.5769327398933e-07,-0.576937332197153,0.31367833055553085,-0.03413066982509009,9.799998172854247
1727705957.9540648,-5.483982406706678e-07,2.0097232945951308e-07,0.34166335739743364,-0.9398224035484429,1.788328861846189e-08,-7.352780314241312e-07,-0.6426937457272569,0.3146320629821311,-0.0529820097467869,9.799998430064766
1727705958.020125,-5.465385784750431e-07,2.0860880386522514e-07,0.35448002288522196,-0.9350635878778246,3.684606356237683e-08,-8.099828132398656e-07,-0.6946131009327556,0.052721226880312874,-0.05064611321179191,9.799998246893466
1727705958.2806225,-5.478074252070785e-07,2.1564469075257597e-07,0.36418958805148743,-0.9313248326736173,6.735307081357431e-07,-8.115758728831145e-07,-0.6887823459765052,-0.10679456060066855,1.6972987561864246,9.800009132705462
1727705958.283784,-5.540088834299253e-07,2.2463182626825597e-07,0.3736184576494363,-0.9275824750949637,4.862721037807948e-07,-8.048648407445059e-07,-0.6735782537324865,0.03158656449310522,1.2535109251371823,9.79999360634461
1727705958.30227,-5.542547200539619e-07,2.3139864724404444e-07,0.38319007957086204,-0.9236695095747804,8.137973789347751e-08,-8.348025479807267e-07,-0.6933400016906303,0.08491148288953786,0.1557741433919711,9.79999546875935
1727705958.3427455,-5.521378283242524e-07,2.3960903502288287e-07,0.39594583916108633,-0.9182738657125449,1.681284628590532e-07,-8.36310481656467e-07,-0.6959405852838952,0.14845159761751575,0.40944722231631747,9.800001102019479
1727705958.3987799,-5.499635845922613e-07,2.4558482670603345e-07,0.4055224805184647,-0.9140850714204825,2.156851640038132e-09,-8.433193359420982e-07,-0.6969689785260138,0.07368274603742013,-0.0560062596851889,9.799998490367123
1727705958.4308207,-5.479706346415054e-07,2.5165381397602815e-07,0.41510633057428237,-0.9097729026063541,1.341168594240902e-07,-8.494428088443554e-07,-0.707851167783692,0.2224121633619709,0.3286949178518703,9.800001009523482
1727705958.6586866,-5.473769665377784e-07,2.6095427766229566e-07,0.4280174803921468,-0.9037704556348313,6.373382447061401e-07,-8.626813509621705e-07,-0.7073451128864284,-0.03227398507553644,1.6921255171904905,9.800009305092066
1727705958.6631954,-5.528667668606678e-07,2.707812846108954e-07,0.43740023096132297,-0.8992669447692394,5.814807059227267e-07,-8.533719134775992e-07,-0.6878082565118738,0.024251232795096167,1.5998884857854738,9.799995978297124
1727705958.7001529,-5.53785360386355e-07,2.782674199350878e-07,0.44619364528343164,-0.8949364395912701,1.7976719586594276e-07,-8.064814585456043e-07,-0.6391362517739896,-0.048785034467388265,0.5220377008478027,9.799995428615174
1727705958.7312887,-5.523119323174018e-07,2.8647430706809616e-07,0.45739840805396825,-0.8892618828608975,5.454911701252363e-07,-7.809856827046765e-07,-0.6220459089330859,0.05242867604819185,1.5602687302361586,9.800008753986594
1727705958.769027,-5.498832613437417e-07,2.918533699152258e-07,0.4656187111868605,-0.8849854325311233,-2.99342449768074e-08,-7.756386970432822e-07,-0.616431052340255,0.12208656581296295,-0.007672051138035625,9.79999852036027
1727705958.8020575,-5.489735606980604e-07,2.9800167593514024e-07,0.47374473199396183,-0.8806622104459684,4.765559656888587e-07,-7.702361245216032e-07,-0.6120803999600529,0.10868445051553073,1.3947318451070587,9.800007245711047
1727705959.0099285,-5.46488085396512e-07,3.033161104156469e-07,0.4818205762773776,-0.8762698969354962,-3.0197970932858985e-08,-7.737069935195458e-07,-0.6122828644307988,0.1385657804943829,0.007991622458234177,9.79999858132545
1727705959.0533626,-5.523411166796047e-07,3.154781503924094e-07,0.4922911074738848,-0.8704306207284594,5.418680275494757e-07,-7.626602100893965e-07,-0.5918449161000239,0.09895028241091565,1.6371245758209472,9.79999682370398
1727705959.0793672,-5.555253091926422e-07,3.239428320655978e-07,0.4998460598745388,-0.8661142629165538,3.2066038391646914e-07,-7.50849124092285e-07,-0.5713877545581323,0.04935076604183409,1.0635180205761108,9.79999351931902
1727705959.3263621,-5.521572259136446e-07,3.284919512795151e-07,0.507157584942706,-0.8618533425326314,-8.004219204025927e-08,-7.34282718327992e-07,-0.5625152082304238,0.1869873082800325,-0.01774627958445315,9.799998762789288
1727705959.332672,-5.562224978680038e-07,3.3951300062317265e-07,0.516599371132197,-0.8562272418846494,2.657066096133536e-07,-7.190303578856116e-07,-0.5395759048422407,0.10290443676493564,0.9736003519312384,9.799992959550222
1727705959.3542109,-5.525986156177622e-07,3.4363608179372784e-07,0.5234361747182705,-0.8520648866112724,-9.78214513149169e-08,-7.048177344640707e-07,-0.5321737583114984,0.21168934640215992,-0.011956222573963381,9.799998880210316
1727705959.3833776,-5.485955960612237e-07,3.474396988506501e-07,0.5301924634124124,-0.8478773211616502,-9.420196577915104e-08,-6.985038848461326e-07,-0.5287981629974435,0.2112731088404798,-0.008251587352351649,9.799999191074663
1727705959.445639,-5.434521660019219e-07,3.5252891626623027e-07,0.5390919377312289,-0.842246925000483,-8.950425597719784e-08,-6.916179688822666e-07,-0.5252046746006701,0.21194542282622017,-0.0025398718358436265,9.799999134843043
1727705959.4897714,-5.424124529876378e-07,3.58099413998326e-07,0.5456729832514027,-0.8379982072469438,5.153848530478058e-08,-6.876748891069153e-07,-0.5210740736199754,0.22516454252706142,0.3992111650037045,9.79999060634073
1727705959.679311,-5.385335069391159e-07,3.6180389303296696e-07,0.5521902764184419,-0.8337181170086827,-9.220371593112145e-08,-6.844171440784428e-07,-0.5188735683320056,0.2212073314846685,-0.0019573612245288264,9.799999175182824
1727705959.682312,-5.257433172731934e-07,3.59414296624529e-07,0.5585551110051039,-0.8294674122409331,-7.918220939792088e-07,-6.584322834965032e-07,-0.5058635880453767,0.15774212688057634,-1.991682609814961,9.800001959671702
1727705959.710666,-5.093999522532333e-07,3.5605580279048867e-07,0.5667306362830906,-0.8239031410898837,-7.607333383702981e-07,-6.163109045222506e-07,-0.48749431615059186,0.10733244899111705,-1.9878954186274356,9.80000191682591
1727705959.741965,-4.976619259792525e-07,3.534164036645019e-07,0.5726217603495296,-0.8198196872324017,-7.381617586814338e-07,-5.85153794236592e-07,-0.47298453784946165,0.07133538587309696,-1.984954474608283,9.800001885746537
1727705959.7757545,-4.863577698500626e-07,3.506811983816536e-07,0.5783010290080511,-0.8158234612021583,-7.162142467289077e-07,-5.544134964451732e-07,-0.4578790282713334,0.03702913203870679,-1.9819471866613132,9.800001855509995
1727705959.812715,-4.7208135227977303e-07,3.4699760061570264e-07,0.5855289848228029,-0.8106514713068956,-6.535903058283827e-07,-5.132773438469513e-07,-0.43514544368146063,-0.030361930029658486,-1.8859007477592287,9.800002384387113
1727705960.0241463,-4.6338923573917135e-07,3.452241833317913e-07,0.5906844011047651,-0.8069026820448492,-3.333578187467066e-07,-4.846965598707704e-07,-0.42598597168631847,0.11111039777792905,-1.0257828401812932,9.800006643286993
1727705960.0519252,-4.6922336569598965e-07,3.5397678678993846e-07,0.5956692031354948,-0.8032298552939744,6.392549562568952e-07,-4.7572634928818806e-07,-0.4069349458033026,-0.04217721295080762,1.6795509906601562,9.799997295815405
1727705960.1189742,-4.764496612072134e-07,3.651980621772381e-07,0.6019567979669251,-0.7985286553286902,6.141060884047154e-07,-4.6026338362294526e-07,-0.38398043883406047,-0.015619127154580215,1.684076637392051,9.79999727686524
1727705960.374843,-4.816114471861466e-07,3.7337857982154224e-07,0.606411913760853,-0.7951506717902767,5.958799368799613e-07,-4.4794082799292093e-07,-0.36714008743200893,0.0021598826494705937,1.6872008291258616,9.799997263157175
1727705960.3780437,-4.798761982993661e-07,3.7649376766666365e-07,0.6112618874396732,-0.7914283953481301,7.965662948304584e-08,-5.064042640770745e-07,-0.424551081789417,0.33583832973625116,0.3087931298625404,9.79999928076901
1727705960.3849792,-4.787760697511158e-07,3.807415707116979e-07,0.6166467139336,-0.7872400079991606,1.1780550704548951e-07,-5.65652571998832e-07,-0.46964296463675936,0.32448518426025275,0.4109434699051345,9.799999004484594
1727705960.4270754,-4.758325337449392e-07,3.860930812824481e-07,0.6244524116788567,-0.7810628563362133,-2.5102600749297857e-08,-6.207828094042544e-07,-0.5053020454277232,0.1672303647927912,-0.008237228398934766,9.799999008518148
1727705960.4973104,-4.7203040458009407e-07,3.890561671226449e-07,0.6303695528249696,-0.7762951931262189,-7.383771513926978e-08,-6.231239693614087e-07,-0.506276267601906,0.12312212133959084,-0.15443011558565334,9.80000064908067
1727705960.5300708,-4.694533168701734e-07,3.9297830040150605e-07,0.636220924144961,-0.7715069252312365,2.0404903202289042e-07,-6.184174305216516e-07,-0.505326019286547,0.1737806985017664,0.6195249182439592,9.800003865153828
1727705960.7579422,-4.671469313560973e-07,3.9924105158851084e-07,0.6440313043169361,-0.764999136639675,-1.5488438584215296e-08,-6.277114664443088e-07,-0.5074171261653782,0.13168320662914235,0.02118524189201109,9.799999235736271
1727705960.7608497,-4.706770218420798e-07,4.084083188320164e-07,0.6497172903125096,-0.7601759287616134,5.667469671635461e-07,-6.183641250984539e-07,-0.49194965867376,0.0834171283327575,1.6625609017408345,9.799997367838628
1727705960.7900355,-4.6881520044005626e-07,4.130381001445108e-07,0.655403635541123,-0.7552788058188104,-1.6650660977583368e-08,-6.316662375295538e-07,-0.5013190027001125,0.17768255102271532,0.07919898221473898,9.79999822639342
1727705960.835126,-4.6406433500858753e-07,4.173087350724835e-07,0.6629002965440199,-0.7487076845080869,-4.245527189345775e-08,-6.256539611008667e-07,-0.49646576495102934,0.15916596880177492,0.003061874258046958,9.79999957704558
1727705960.8631654,-4.5259394734033744e-07,4.132969748537175e-07,0.6683533514944642,-0.7438439335947706,-7.43561542365508e-07,-6.003632260265319e-07,-0.48239624862680547,0.09668057587095225,-1.9868335764257645,9.800002181720231
1727705960.89748,-4.415679653233656e-07,4.0924159389169015e-07,0.6736101854787794,-0.7390868135874714,-7.214787800972419e-07,-5.6967127814759e-07,-0.46771113301915745,0.06121438824899974,-1.9838772069438158,9.800002142800075
1727705960.924128,-4.309755300899435e-07,4.05147951636901e-07,0.6786670677214819,-0.7344460573724767,-7.000064715848003e-07,-5.393995642566712e-07,-0.4524399882120453,0.02747423825742561,-1.9808601293514805,9.800002104973412
1727705961.1741226,-4.1883787481849013e-07,4.008817300040572e-07,0.6850125084737644,-0.7285313055965027,-3.8383881425718733e-07,-4.886152754788516e-07,-0.4129321150801995,-0.22047486352426182,-1.2008226046819586,9.80000535058284
1727705961.2043438,-4.14057025765862e-07,4.009216838264687e-07,0.6889571229916674,-0.7248020989751011,-2.0286724257752902e-07,-3.983954928059582e-07,-0.33502908902928474,-0.3424338940456308,-0.7254844131942679,9.800000831854204
1727705961.2339225,-4.101207982367102e-07,4.0073874028390767e-07,0.6920067216151707,-0.7218910563506759,-2.0327872445670405e-07,-3.022348518529365e-07,-0.25457989851236756,-0.3457834478760748,-0.7321075612754476,9.800000431728183
1727705961.4821398,-4.1477561978454103e-07,4.087371508734209e-07,0.6951850217404006,-0.7188308462687585,6.521135187243895e-07,-2.430900324057584e-07,-0.21279162369693178,-0.05284193752186379,1.7098488980424713,9.799997549350744
1727705961.496382,-4.20462767235959e-07,4.166687773986397e-07,0.6973710163593642,-0.7167103079637944,6.328192442608691e-07,-2.306417736571711e-07,-0.1982924112631267,-0.03780934630881893,1.7119554102810728,9.799997527494503
1727705961.526581,-4.2598290707695873e-07,4.2435610725498125e-07,0.6994034961975152,-0.7147270454560473,6.140829140205016e-07,-2.1882851628438864e-07,-0.18495415897573939,-0.02459973906599787,1.7137797499315823,9.799997506480715
1727705961.6250036,-4.310038536011662e-07,4.3220294269697645e-07,0.7020166284650108,-0.712160553076514,1.7982117960142404e-07,-2.2312463909740203e-07,-0.19472727018574562,0.24750279639211653,0.6081447676009889,9.799994185308815
1727705961.6549666,-4.3267815343154963e-07,4.3648979022920224e-07,0.7043620234141597,-0.7098409258217878,5.867595838668841e-07,-2.7191991055667345e-07,-0.2219352500885539,-0.0100374754349614,1.7084787614792838,9.800006801647058
1727705961.687045,-4.351549176805585e-07,4.417635468984725e-07,0.7067514751134667,-0.7074619088152763,1.4822630751870598e-07,-2.801022941013782e-07,-0.23567746502722234,0.26727065060779204,0.5715841165382501,9.79999479169646
1727705961.9005473,-4.37939139415575e-07,4.477468148438294e-07,0.7093566753808752,-0.7048497053217793,5.62892747378095e-07,-3.026103421727996e-07,-0.24072034857949737,0.011041159354705222,1.705944911728945,9.799997478521753
1727705961.9179654,-4.3915242605283153e-07,4.532007051256712e-07,0.7127149209686512,-0.7014538056267504,-2.5816430232303768e-08,-3.046603779182186e-07,-0.2427932798900318,0.11891264716752724,0.12978712071907583,9.799993672637678
1727705961.9478326,-4.3678608882727265e-07,4.540578431294715e-07,0.7152703957916984,-0.6988478095433871,-7.267372063549242e-08,-3.0610971817282894e-07,-0.2433894306652736,0.09879282141687663,-0.007560745647611096,9.799999752699328
1727705961.9773824,-4.3420896473467415e-07,4.546912288737188e-07,0.717818304084104,-0.696230480747163,-1.2884458760160613e-07,-3.058044815165239e-07,-0.2437407199714567,0.10335197874184557,-0.1685123875112151,9.79999883235536
1727705962.0234373,-4.326916959355474e-07,4.5751984491404617e-07,0.7211877691329713,-0.6927396348214899,4.0722749651095055e-07,-3.0287335230719555e-07,-0.23878856797266193,0.024830641252582438,1.2980420609245895,9.800007500839973
1727705962.049211,-4.3061752520069233e-07,4.5858652441052126e-07,0.7236468736276985,-0.6901704153964162,-6.955401781454762e-08,-2.9761391489654624e-07,-0.23689343929351442,0.0973814578878203,-0.0041044260461720935,9.799999627504029
1727705962.2634466,-4.325650400211235e-07,4.638593314104716e-07,0.7260429238686907,-0.6876493820980285,5.469273629625289e-07,-2.8990382272459186e-07,-0.22689769492662568,0.028881400365095452,1.7077753630826558,9.799997501839323
1727705962.3288147,-4.3469583119476735e-07,4.7009557218536515e-07,0.728877331296928,-0.6846443134365889,7.066735208760311e-08,-2.4928631351797425e-07,-0.19434983730544172,0.06471122087316745,0.4419078962020163,9.799997843940833
1727705962.3611565,-4.3250520411530916e-07,4.704563858450805e-07,0.7308625651584246,-0.6825246595176171,-9.08596058495109e-08,-2.464633500348143e-07,-0.19352213148929284,0.0950618004382485,-0.0038608764964335514,9.799999759362352
1727705962.5995417,-4.30559875306054e-07,4.710440368355212e-07,0.7328050666829827,-0.680438633708685,-7.865871430377166e-08,-2.3928018924729985e-07,-0.1876488670657209,0.07592334036649448,0.022691732625165034,9.799998477524422
1727705962.6161492,-4.2829765344392404e-07,4.7121215422757613e-07,0.7347170292153045,-0.6783737074656062,-1.1075568398329555e-07,-2.380442189421342e-07,-0.18834322952635435,0.1091627049542855,-0.06848118466104879,9.799999436341714
1727705962.6545706,-4.2540212233444636e-07,4.715759035890693e-07,0.737272550677023,-0.6755954307259582,-8.334043332765609e-08,-2.3879176254539067e-07,-0.1887824092769315,0.09375559441142434,-0.004800822257209114,9.79999983518456
1727705962.6839263,-4.2294381612661493e-07,4.71552283169609e-07,0.739226982373583,-0.6734563597817197,-9.1626762019522e-08,-2.467108190370524e-07,-0.19615875574804953,0.1186181987875226,-0.0341197884834935,9.800001279479293
1727705962.7498524,-4.207843577871324e-07,4.7193256102080063e-07,0.7412107892906731,-0.6712723484836074,-7.762253224138319e-08,-2.4814426626521244e-07,-0.1967639089541115,0.0975991662503942,-0.005222448661239648,9.799999848185772
1727705962.8037462,-4.1842495163905764e-07,4.7291430522071155e-07,0.7437582414782858,-0.6684487102483847,-7.561493761002152e-08,-2.3850937728542e-07,-0.18949143040339114,0.09267431086056875,-0.004163364081511937,9.799999811266481
1727705963.0074537,-4.166923175589834e-07,4.7361571084173706e-07,0.7456037411839677,-0.6663895715961293,-6.290415280876388e-08,-2.2827646171143452e-07,-0.18084559009866452,0.06495120705753807,0.024354283250316033,9.799998401628248
1727705963.0121872,-4.147163880183813e-07,4.7393513671309206e-07,0.7474024036924289,-0.6643716181132234,-7.253116257451134e-08,-2.2573979645152252e-07,-0.18013846560336585,0.08946518889160467,-0.004349927422622038,9.79999985535531
1727705963.0520692,-4.1253498878967965e-07,4.748459049454231e-07,0.7497811214963603,-0.6616859299148383,-7.073229335202708e-08,-2.244636822607851e-07,-0.17930863113891557,0.09006835970829687,-0.00347477101158823,9.799999825922269
1727705963.3046825,-4.106253687096884e-07,4.7521819142039827e-07,0.7515730094502044,-0.6596499158383697,-6.783061811905587e-08,-2.270514853060869e-07,-0.18184795240414722,0.09904910006585174,5.3362961907754764e-05,9.799999712343288
1727705963.3093565,-4.086881301428258e-07,4.755825258771603e-07,0.7533713943714472,-0.6575952722932458,-6.70687355591753e-08,-2.2737017858625873e-07,-0.18205712273344019,0.09184810957402453,-0.004419262884696294,9.799999872938123
1727705963.3375275,-4.0678381052952826e-07,4.759472493997723e-07,0.755131338853157,-0.6555735359831469,-6.514489673193991e-08,-2.2233642689477974e-07,-0.17829608330781402,0.08687503006874646,-0.004709320240575749,9.79999987910379
1727705963.378786,-4.042937628872382e-07,4.7644278559638207e-07,0.7574683804555652,-0.6528718500667895,-6.268420559133878e-08,-2.226089580853733e-07,-0.17977689711050426,0.11161845708940545,-0.0014610805128354358,9.799999879650125
1727705963.407744,-4.0243384018685885e-07,4.768439459279314e-07,0.7592313364519451,-0.6508208491966156,-6.080819076950275e-08,-2.2414114413907224e-07,-0.18036656180242547,0.0912825972921408,-0.004304539873042357,9.799999885689823
1727705963.441078,-4.006120516062416e-07,4.7724056613458e-07,0.7609177224361415,-0.6488483795789327,-5.9105098272838355e-08,-2.097897781610659e-07,-0.1679711393322892,0.04807000335132126,-0.009094930185768098,9.799999904371942
1727705963.6896896,-3.983098663229568e-07,4.777060300502192e-07,0.7630853650259002,-0.6462977066978512,-5.6791583978282416e-08,-2.0712112811245303e-07,-0.16769313334189018,0.08641477948234835,-0.003416068797082999,9.799999889148673
1727705963.7108688,-3.965965504968899e-07,4.780730579518153e-07,0.7646575145748228,-0.6444368746462826,-5.542253149272628e-08,-1.9765775066990928e-07,-0.15172984993000013,-0.13992378429736985,-0.03485051373130462,9.799999909149221
1727705963.7354863,-3.950471782462681e-07,4.783280792556266e-07,0.7660701568101085,-0.6427569640576064,-5.36180394341543e-08,-1.7878251301228105e-07,-0.14568351300691226,0.06859652435973523,-0.003544144000669225,9.799999901059223
1727705963.7764726,-3.9303283344655564e-07,4.786664845980261e-07,0.7679184580544123,-0.6405476108603873,-5.163976410373322e-08,-1.7457636655835313e-07,-0.13940562071407542,-0.012911131549368677,-0.014806602650804074,9.799999907655389
1727705963.8486764,-3.915961827534963e-07,4.788884168039999e-07,0.7692363448429117,-0.6389643540701893,-5.0051771894368715e-08,-1.6727354207596027e-07,-0.13708490100277812,0.06712455018176607,-0.002796248622430482,9.799999906355142
1727705963.8761919,-3.9025402718445316e-07,4.790544419133093e-07,0.7703955467368798,-0.6375662330829653,-4.8607806297521685e-08,-1.4487837140240585e-07,-0.11916934150226517,0.04603884813655404,-0.003953345698326654,9.799999914737464
1727705964.0887861,-3.889896736781937e-07,4.791825917052217e-07,0.7715206634516728,-0.6362042642632236,-4.7216104268973225e-08,-1.4178406001983074e-07,-0.11562941951163092,0.015207577616365809,-0.008097088267098233,9.799999913090561
1727705964.1083689,-3.873669929892301e-07,4.793400700031652e-07,0.7729850756263678,-0.6344242057633983,-4.528827854314638e-08,-1.396289559159995e-07,-0.11732862260546349,0.09806493304681338,0.0038871922592102217,9.799999911790533
1727705964.1371596,-3.8614066251091234e-07,4.794935964301144e-07,0.7741097013285143,-0.6330514752440747,-4.4010900395368666e-08,-1.4293558145054248e-07,-0.11842263326523267,0.06033441965207146,-0.0017690258231206947,9.799999916233094
1727705964.433983,-3.849233359467711e-07,4.796626733112126e-07,0.775252030762977,-0.6316520314203873,-4.269396839643038e-08,-1.4636996538471986e-07,-0.12441053149568151,0.14305877963785532,0.009571084429375938,9.799999913616753
1727705964.4469106,-3.832411445758846e-07,4.799706758751365e-07,0.7768478494531064,-0.6296883505351726,-4.107674112949148e-08,-1.5334562844945183e-07,-0.12672707073687756,0.06417262708459194,-0.002094068376797516,9.799999922475672
1727705964.4741797,-3.819893554782034e-07,4.802169783506445e-07,0.7780322165164226,-0.628224378755048,-3.9890603658443615e-08,-1.5104635007125094e-07,-0.12471822570471973,0.05673173161342597,-0.002969226157147242,9.799999927867118
1727705964.5060697,-3.807605820440887e-07,4.804645582862688e-07,0.7792047255426506,-0.6267694916726776,-3.87235998984821e-08,-1.5046156996644507e-07,-0.12455223721439283,0.062456261106509446,-0.0021122063617923905,9.799999927365937
1727705964.546038,-3.791570744925362e-07,4.807958147574464e-07,0.7807315359804409,-0.6248666007439079,-3.7232023456948106e-08,-1.4681740112072732e-07,-0.12172993304158124,0.06056243295726807,-0.002088077106308522,9.79999993044557
1727705964.6011875,-3.7797687389634677e-07,4.810478910990482e-07,0.7818645262924708,-0.6234483639605417,-3.614915381901213e-08,-1.457440749179423e-07,-0.12093018088483277,0.0601384123294043,-0.002065007829743569,9.799999932580493
1727705964.8438675,-3.768115775895285e-07,4.813073512435475e-07,0.7830280857295329,-0.6219863478874512,-3.4919576789528286e-08,-1.518473798858632e-07,-0.13187240430962743,0.2142393838935952,0.01937758027976292,9.799999926180888
1727705964.8533032,-3.755524678876025e-07,4.816584101222761e-07,0.784291292691068,-0.6203927531883335,-3.4065962254782504e-08,-1.64476440508983e-07,-0.13600936993503465,0.07156529134091416,-0.002023618553304426,9.79999993527759
1727705964.8922544,-3.738877819310261e-07,4.8213869511774e-07,0.7859404447223747,-0.6183022055186473,-3.2768590167258364e-08,-1.605739113074715e-07,-0.132850570025562,0.0661077623877658,-0.0024780928992895854,9.79999993971165
1727705964.9222367,-3.7265848197343117e-07,4.825020564362966e-07,0.7871787500894023,-0.6167249106427553,-3.17787815844908e-08,-1.6188241997374283e-07,-0.1353918770001968,0.1026097560234693,0.0026023913940121947,9.799999939383229
1727705965.0049248,-3.7141313525958575e-07,4.828925850141113e-07,0.7884375825767111,-0.6151147684621308,-3.0898933581295444e-08,-1.647665812276463e-07,-0.13635790101109102,0.06929396120843025,-0.002396577857315643,9.799999942809954
1727705965.0415983,-3.69732327388354e-07,4.834516927982922e-07,0.7901682554357854,-0.6128899804216061,-2.9700908365159427e-08,-1.7301505108537226e-07,-0.14317893327926695,0.07724962142894297,-0.0019892267395053725,9.799999943186519
1727705965.260359,-3.683330106910841e-07,4.837662507070138e-07,0.7913849049248788,-0.6113181923161382,-6.463926959939249e-08,-1.5500505319918108e-07,-0.1109254638569829,-0.3816064975107458,-0.16356820414170148,9.799999394976908
1727705965.270368,-3.67540968837177e-07,4.839995421590225e-07,0.7920741718979591,-0.610424857137873,-2.7127859470617254e-08,-8.381534892724586e-08,-0.07084150062260484,0.003559089569613647,-0.0032131143533037417,9.799999865416375
1727705965.3126454,-3.665983319463809e-07,4.840471559775674e-07,0.7929281892936958,-0.6093150963360846,-2.678094738465077e-08,-8.111430316735147e-08,-0.06993431042393795,0.03485129242971094,-0.0006916438122984988,9.799999949075069
1727705965.570288,-3.655816360831042e-07,4.836793712781607e-07,0.7935322385281738,-0.6085282133279425,-1.30229684251088e-07,-7.469529182918475e-08,-0.058540020192751605,-0.12451701795373088,-0.3114738563390834,9.799998256651767
1727705965.5796313,-3.653318319562888e-07,4.840116668808271e-07,0.7939556614267139,-0.6079756637301375,-2.3411633197640782e-08,-5.043749015338407e-08,-0.04496269531610602,0.012025683448058162,0.0027717203488790056,9.799999750040438
1727705965.6100695,-3.6474968018542397e-07,4.838080752096199e-07,0.7943673106792134,-0.607437713452093,-5.453203203079042e-08,-5.037826545092929e-08,-0.04604285694238589,0.0413243428610984,-0.08139357169876738,9.799999456953065
1727705965.6494653,-3.638777054439387e-07,4.834488330564019e-07,0.7949291743536652,-0.6067022397857402,-8.821035214748212e-08,-5.151761877054983e-08,-0.04560801788115032,0.009943441982306163,-0.18276857621578957,9.799998890882948
1727705965.682667,-3.63370908836993e-07,4.83359102047892e-07,0.7953411305131577,-0.6061620955764937,-2.1796721945793412e-08,-5.0546223025501174e-08,-0.04524908845742305,0.022225974445884627,-0.0008242443044229692,9.799999979029387
1727705965.7123055,-3.6303278981515666e-07,4.835021887102026e-07,0.7957685397604397,-0.6056008843513786,-1.578665748205473e-08,-5.3951369080862165e-08,-0.04824928138438503,0.0329040406492929,0.01645890089825854,9.799999255512576
1727705965.9591868,-3.6149246287072316e-07,4.823211870797289e-07,0.7962982515534565,-0.6049042028061505,-3.1299987270170424e-07,-4.4102456272596636e-08,-0.02962706807377133,-0.2404567002930917,-0.84715841575853,9.799995188675961
1727705965.9637218,-3.6080708858858047e-07,4.816124669361214e-07,0.7964432639443906,-0.6047132604112823,-1.8104192726761478e-08,-1.3778996394526338e-08,-0.015470591336377992,0.003784902124549623,-0.0076891508249142615,9.800000281981196
1727705965.9894094,-3.6061668332744064e-07,4.814693231471891e-07,0.7965827275407882,-0.6045295345831472,-1.5047629323300195e-08,-1.3606036057396611e-08,-0.015366409491457851,0.007385060501872734,-5.7385127983091566e-05,9.799999961487016
1727705966.0358467,-3.600013976521033e-07,4.80804016709732e-07,0.7967769254218977,-0.6042735565245815,-1.3639636368327423e-07,-1.5191683898730633e-08,-0.01816801070042558,0.04651694469718288,-0.3326662382187455,9.79999796058865
1727705966.1050296,-3.5974437050307117e-07,4.806331383968527e-07,0.7969501160129292,-0.6040451246278032,-1.2994548433742684e-08,-1.8636110024899477e-08,-0.0192232094432167,0.010078875046216804,-0.0008703299879015879,9.800000005170785
1727705966.1354806,-3.5882526849921716e-07,4.795891581132469e-07,0.7971121524464875,-0.6038312814203721,-4.0109944963747816e-08,-1.627001849186669e-08,-0.016960406916318716,0.001270338742101454,-0.08405457469948012,9.800003708982432
1727705966.3511837,-3.5865452411235924e-07,4.795079875361018e-07,0.7972642149483483,-0.6036304925717679,-9.57989644048579e-09,-1.5844359864559113e-08,-0.016771235667234183,0.007820863523151046,-0.0002861612050183077,9.799999975191538
1727705966.3547375,-3.5670731743351515e-07,4.771849633469718e-07,0.797515741248261,-0.6032981372927333,-4.822255641813656e-09,-2.133553473612401e-08,-0.02124066131401423,0.010681645759889244,-0.0038197130817062357,9.800000140277438
1727705966.378994,-3.5655667332741536e-07,4.771762217064479e-07,0.7976803219730905,-0.603080511985383,-3.363822474113665e-09,-1.7432876036872335e-08,-0.017826267480148025,0.005531827628542059,-0.0008975475427055964,9.799999988517953
1727705966.6673665,-3.564483053075241e-07,4.772003151692745e-07,0.7978409584872402,-0.6028679830276334,-3.0937933905488363e-09,-1.7325505809326736e-08,-0.017752615249492773,0.008084238091309941,-4.6545723742957033e-05,9.799999967005444
1727705966.6734612,-3.557464512995481e-07,4.759476206635905e-07,0.7975900844051871,-0.6031998485230028,2.8725749791462586e-09,3.752113040346604e-08,0.02764538507285746,-0.02655592691251215,0.005527889753492891,9.79999962888803
1727705966.6969101,-3.560091851178452e-07,4.757517705229657e-07,0.7973366987594808,-0.6035347453220732,1.0720243545692629e-10,3.855536689561235e-08,0.02803873462447897,-0.012920359366905824,-0.00010691591372093414,9.799999967993132
1727705966.7280345,-3.5627005465427936e-07,4.755543732338904e-07,0.7970827243530695,-0.6038701272107566,9.776243235623778e-11,3.8425147396574545e-08,0.028047214890481436,-0.012626233995545518,-8.403853834760652e-05,9.799999969719742
1727705966.7684162,-3.561583625708646e-07,4.746936018932877e-07,0.7967475547520382,-0.6043122818512756,-1.0389847891191524e-09,3.763584480573324e-08,0.027592121306370683,-0.011963683594580199,-0.007311652267158294,9.800000298645605
1727705966.8435884,-3.550693608856175e-07,4.727294676014386e-07,0.7964958771305184,-0.6046439594618775,-5.0390946852122894e-08,3.769317108576864e-08,0.027876977946390935,-0.013206952948214392,-0.15522497912242497,9.800006953967706
1727705967.0741124,-3.5534782905657733e-07,4.725727609852069e-07,0.7962427550673288,-0.6049772516404565,5.859189271221661e-09,3.755824855003063e-08,0.02790389073901083,-0.012100948783752901,-0.000519779621474216,9.79999999102363
1727705967.077865,-3.534305748164657e-07,4.694759616635219e-07,0.795931032492985,-0.6053873070310488,-4.657336203371492e-09,4.6940465061759834e-08,0.036666958729233576,-0.03215279655284524,-0.052119725123600705,9.80000220828561
1727705967.1164331,-3.5370708374189706e-07,4.689707345632215e-07,0.7954830744121314,-0.6059758067146561,1.7977968565403301e-09,4.786674888447615e-08,0.03687016114517163,-0.014427884577649399,-0.033226368554772276,9.800001465530764
1727705967.1492867,-3.541350654948824e-07,4.688872253897641e-07,0.7951479727848266,-0.6064154527845043,1.3460202655046947e-08,4.7671074655878146e-08,0.03685092962686167,-0.015054733504629774,-0.000248895171294929,9.799999976857276
1727705967.2366734,-3.541334481705685e-07,4.6822104839088626e-07,0.7947906289299318,-0.606883725407774,1.2019272033366007e-08,5.065858919096631e-08,0.03955884613110305,-0.018134078744800337,-0.007526007569578709,9.800000291099344
1727705967.2830436,-3.5417302812592804e-07,4.6736130683361954e-07,0.7943004664742409,-0.6075251179650594,-7.736963481147804e-09,5.24060365260489e-08,0.041300825629035205,-0.021621572688910698,-0.06584238481355095,9.800002899613308
1727705967.486998,-3.546409941451966e-07,4.672723724234229e-07,0.7939228067462112,-0.6080185662690525,1.543061064429143e-08,5.2681556548742135e-08,0.041440494469177976,-0.016658624746034228,-0.00040325113786568624,9.799999982981815
1727705967.4903104,-3.5400759659023346e-07,4.6546690081513536e-07,0.7932274817016668,-0.6089254160181604,-5.639908222105645e-09,1.0234995069351531e-07,0.08593369211135755,-0.1046278710239737,-0.08016957702436224,9.80000310941387
1727705967.5179327,-3.493428501545183e-07,4.410056612594324e-07,0.7819970488825431,-0.6232821315733966,6.945291582870368e-07,8.424100583535264e-08,0.07290478574113289,0.009850647039406343,1.7323753782431845,9.799997897489876
1727705967.5219493,-3.551212528319436e-07,4.650755387170726e-07,0.792166272822692,-0.6103053303075944,1.8899293462860605e-08,1.0690101983352234e-07,0.08686686614879331,-0.033204106139859635,-0.0008413929739959427,9.799999973071518
1727705967.551051,-3.5620349231573713e-07,4.4859144773868523e-07,0.7813442951545398,-0.6241002262690885,6.738301434404676e-07,8.046689654405394e-08,0.06825004694151213,0.00533268087860159,1.7321268780467127,9.799997866948615
1727705967.5973575,-3.6108747924835236e-07,4.537065210164605e-07,0.7806287256423402,-0.6249950341416158,2.556663229742497e-07,9.5120600509527e-08,0.0892903835465291,-0.24858383887038793,0.5889860543906691,9.799994736107207
1727705967.7710605,-3.5841143541501185e-07,4.483928935325405e-07,0.7793054411796071,-0.6266442606036764,-2.01936600355817e-07,1.2455654685658024e-07,0.10713932098505105,-0.07658340698254174,-0.675406757081661,9.800006698324179
1727705967.7779331,-3.59430497404223e-07,4.4810153618371685e-07,0.7782870045367792,-0.6279087024152771,3.987755372402653e-08,1.2760259072286112e-07,0.10837009508098963,-0.031172367994880434,-0.0035704227796168196,9.800000065750346
1727705967.8033702,-3.5595340476448553e-07,4.6477992382585315e-07,0.7913704629980411,-0.6113368877255185,1.831094006932184e-08,1.0675932649512715e-07,0.0868556136883632,-0.03359733568337586,-0.0009724166936557123,9.799999977312382
1727705967.8064864,-3.548158457371827e-07,4.6187339449088404e-07,0.7904986123440515,-0.6124638306723016,9.04836849003108e-09,1.1754695031870236e-07,0.09718390977658425,-0.05196837857532895,-0.04579081435491234,9.800001886100985
1727705967.8137984,-3.557590974560239e-07,4.6157705121028856e-07,0.7896012921616736,-0.6136202403899952,2.3734667112051305e-08,1.1875363542802247e-07,0.09762845449483606,-0.03629627181646636,-0.0014111347635280772,9.799999983289409
1727705967.8180761,-3.605663017171481e-07,4.4794634018914785e-07,0.7772650552652944,-0.6291732939843427,3.935685173976005e-08,1.2771469048064513e-07,0.10839660387107768,-0.030229776214986355,-0.001568451260031568,9.799999981899647
1727705967.8552744,-3.570163529182889e-07,4.611801683669323e-07,0.7884015427752574,-0.6151609605211091,2.2840257557796094e-08,1.1867535761558974e-07,0.09763818078022546,-0.03595550865810294,-0.0012420040852893772,9.799999978674624
1727705967.885844,-3.579499493107284e-07,4.608727014177035e-07,0.7874997489743403,-0.6163149725302886,2.216118493321581e-08,1.1859805259316443e-07,0.09763823812339233,-0.03595350269819428,-0.0012416497182589407,9.799999979349277
1727705967.9266887,-3.5888414371774765e-07,4.6056798870539084e-07,0.7865954993453169,-0.6174686392112156,2.4258335266171096e-08,1.1864691677798108e-07,0.0978865414253677,-0.03941553649612118,0.005914163315972581,9.800000025660102
1727705968.069103,-3.6098132595496245e-07,4.4630668194632364e-07,0.7758166779940774,-0.630958383846276,2.776412383078179e-08,1.378126434166212e-07,0.11743823703894485,-0.03400852225775962,-0.039850419586510255,9.800001678735544
1727705968.0911555,-3.6217799838626743e-07,4.461011520484676e-07,0.774703445071538,-0.6323247363451475,4.0252231196317554e-08,1.3801844935137928e-07,0.11750315711036426,-0.031593415608101194,-0.0019534937842760197,9.799999987427144
1727705968.120749,-3.6336997068083963e-07,4.458882547863495e-07,0.7735877281448759,-0.6336892194627575,3.90942638875618e-08,1.3807284142808982e-07,0.11750455517757742,-0.031543606913071044,-0.0018410002900410727,9.799999983232667
1727705968.1591449,-3.648842250786298e-07,4.4548764138832264e-07,0.7720690619580695,-0.6355386404986364,3.7421385681988976e-08,1.4175422105460104e-07,0.12070986349607085,-0.03483605863704953,-0.003354899110204074,9.800000032385121
1727705968.174298,-3.6011074329803686e-07,4.601338235101471e-07,0.7853840843901276,-0.6190087559851953,2.0626851271907733e-08,1.1884058472299098e-07,0.09798161628711152,-0.036108209640294674,-0.001250542494894652,9.799999980743197
1727705968.1777313,-3.5462865992330715e-07,4.5171718635525375e-07,0.7845131574976661,-0.6201121718791788,-6.599996230807944e-07,1.1172620935759716e-07,0.09161591381692565,-0.004996624122178696,-1.920219962547713,9.800002320815935
1727705968.202032,-3.4925836552019013e-07,4.43590149822387e-07,0.7836980525799538,-0.6211419824662225,-6.403613897521459e-07,1.0230973705021547e-07,0.08556194277782792,0.0007490910016212958,-1.9199994456231941,9.800002279874183
1727705968.2180934,-3.6534408777394254e-07,4.4434024098533515e-07,0.7709017269037891,-0.6369541015304202,-1.9244237729846353e-07,1.4453725766517868e-07,0.12540870358501713,-0.09849955032889841,-0.6461809185248707,9.799996202618908
1727705968.2422585,-3.422731703369087e-07,4.331850576544462e-07,0.7826936321622354,-0.6224071643003335,-6.150763293684674e-07,9.083966013684836e-08,0.07796200533987505,0.007259967177540562,-1.9197397110746506,9.800002227218947
1727705968.2501774,-3.664638168582713e-07,4.4391642780074136e-07,0.7696872007832714,-0.6384211877358713,3.7638438339168393e-08,1.4910589761893757e-07,0.12715812127164808,-0.03447046013782211,-0.004142668251783195,9.800000065688245
1727705968.4614284,-3.63283587692806e-07,4.3830990408707857e-07,0.7684952246125945,-0.6398555225574862,-6.498424036933413e-07,1.441671710398878e-07,0.12149354371538806,0.005656760875661356,-1.9200571186261906,9.800002304989397
1727705968.4961607,-3.562241050642472e-07,4.276892723941976e-07,0.7670256182016253,-0.6416164750239076,-6.241885012498075e-07,1.2783187895574654e-07,0.11068914154534257,0.014524292709540964,-1.9196146427593366,9.800002251663196
1727705968.5289726,-3.5104288027653695e-07,4.200564168502814e-07,0.7660084769934719,-0.6428304700104391,-6.056074395675933e-07,1.1667044439955425e-07,0.10307967454378723,0.02007019458840404,-1.9193314356970557,9.800002212770154
1727705968.599208,-3.459611297284014e-07,4.1269522807953807e-07,0.7650602758894035,-0.6439586743384544,-5.875757129463378e-07,1.0637644648231279e-07,0.09587964724574856,0.024754821686255507,-1.9190842321451609,9.800002175034447
1727705968.639625,-3.4458280741333603e-07,4.098509433387514e-07,0.7644532590489569,-0.6446791564252264,-9.323206363542667e-08,2.9019912182313293e-08,0.013611359172712039,0.31263908072141017,-0.538567229814696,9.800000754493604
1727705968.6785002,-3.4548732165867524e-07,4.108494520470513e-07,0.7644367710708021,-0.6446987071761178,1.1445989917576462e-07,1.1063383282020815e-10,0.00029077514526072744,0.010597064748569677,-0.0023179785411425718,9.800000136253551
1727705968.8769975,-3.465775912750091e-07,4.121563836574384e-07,0.7644364187408392,-0.6446991249430932,1.1239499281180612e-07,-6.674697580951074e-10,6.214570643068634e-06,0.00022653457256048426,3.2421193727972026e-05,9.799999969925882
1727705968.9080737,-3.4798079431919885e-07,4.138408772280159e-07,0.7644364110915272,-0.6446991340130784,1.0797016889813713e-07,-6.578859151382903e-10,3.6863052975456464e-08,1.3593867316108563e-06,1.0814221258934075e-05,9.799999970768088
1727705968.9364836,-3.489967809615575e-07,4.150605611030452e-07,0.7644364110468567,-0.6446991340660442,1.0476368643454301e-07,-6.384505597970521e-10,7.87999874188619e-10,4.4624107531794106e-08,1.0659381687361165e-05,9.79999997163009
1727705969.1883566,-3.5398358685482235e-07,4.2099778717065077e-07,0.7644360251693012,-0.6446995916107414,7.19870544956309e-07,-1.1858720429720134e-09,7.948644506561097e-05,0.0008293846265133615,1.7309624412419986,9.799997945218754
1727705969.1992893,-3.6079313267696405e-07,4.2909901098596113e-07,0.764434526383528,-0.6447013687533761,6.984345224768578e-07,-1.0187066825914495e-09,0.00019185474862412426,0.0008587336635296591,1.730809742445231,9.799997912789738
1727705969.240437,-3.6491605355956785e-07,4.3426085373947945e-07,0.7648411263038772,-0.6442189468759006,2.3070445546466116e-07,-5.840694441786999e-08,-0.061453481948373946,0.27160898187240773,0.5199047464550203,9.799999508946378
1727705969.2702425,-3.6277287067137684e-07,4.326343062500403e-07,0.7656167680380004,-0.6432969489269539,-1.9097577992651012e-07,-9.665902607736854e-08,-0.09476372683434486,0.2610838904532602,-0.6547613334527475,9.800005723894778
1727705969.3145213,-3.625257527990219e-07,4.33681020940504e-07,0.766596138241239,-0.642129551440595,5.778524612627043e-08,-1.172218918511251e-07,-0.10239796896499198,0.016074420145011828,-0.0028967110759437155,9.800000084798102
1727705969.3618145,-3.6041716534075594e-07,4.331903105413339e-07,0.7681086011803104,-0.6403195895742291,5.978890881871643e-08,-1.381774138940749e-07,-0.12137209712698563,0.018207937184810646,-0.007613618631767009,9.800000283882063
1727705969.5698333,-3.599039680172711e-07,4.343031702021913e-07,0.7695254502950953,-0.6386161455426982,1.7575555992870377e-08,-1.8109850842557745e-07,-0.1735526673563221,0.369500649187618,-0.07558917526668747,9.799999902971065
1727705969.5957797,-3.584596291691129e-07,4.3515185946787606e-07,0.771506383322259,-0.6362215812849245,4.6302806530222394e-08,-2.423102689495663e-07,-0.21505887201190405,0.07501666061961855,-0.043406656269021834,9.800002004457491
1727705969.630257,-3.569745537973298e-07,4.373653353220094e-07,0.7743553154845499,-0.6327510137332887,6.114367194155279e-08,-2.5701439195893854e-07,-0.2254413635478257,0.018603045804094203,-0.007379016409757733,9.800000017750412
1727705969.7248843,-3.5572045303477506e-07,4.3894468062611227e-07,0.7765561988261235,-0.6300479902867742,4.8793037403761476e-08,-2.688237356366685e-07,-0.2370886506308668,0.05186923411853821,-0.03546875390989087,9.800001445931757
1727705969.7606533,-3.546786718829643e-07,4.409232277052708e-07,0.7787999080912872,-0.6272724313698812,5.884919245247719e-08,-2.7187369942329337e-07,-0.23803593632841424,0.017436443828183327,-0.007864408582025827,9.79999999578849
1727705969.7915463,-3.5341710689327087e-07,4.427186353385496e-07,0.7811902715064566,-0.6242930078924059,3.386147656493011e-08,-2.99918994072508e-07,-0.26678103367856715,0.1254450279713671,-0.06149431833170772,9.800000127437727
1727705969.9890978,-3.5057807163812656e-07,4.4402233076035036e-07,0.7842711751094597,-0.6204181846884462,-1.6649194337570518e-07,-2.6045741532333417e-07,-0.21252715003858563,-0.35675102595405944,-0.676449060047072,9.799999334656215
1727705969.9999855,-3.476893351695725e-07,4.4301223261462504e-07,0.785778059878922,-0.6185085614707366,-1.6813974385935615e-07,-1.722209916391458e-07,-0.13749107348802733,-0.3361658144483637,-0.6846921145513739,9.800000863763481
1727705970.0363586,-3.4544285537485203e-07,4.4177004888767717e-07,0.7866105148167997,-0.6174495104697507,-1.5255776357311935e-07,-9.004757255921075e-08,-0.06636408935124363,-0.3243577657825059,-0.6491545681269139,9.800000826437785
1727705970.2919567,-3.44203952349096e-07,4.408555927403229e-07,0.7868321153383173,-0.6171670942880187,5.197872859574355e-08,-4.29943093208927e-09,-0.0016126099133561035,-0.05879756325537942,-0.05846997223739685,9.800002263938032
1727705970.3058846,-3.448310627620943e-07,4.416597487375975e-07,0.7868339861963428,-0.6171647091061343,6.825349062737814e-08,1.6997911995824276e-10,-3.447444413961452e-05,-0.001256650244347702,-0.00030993606012828004,9.799999989093335
1727705970.3347778,-3.454538148451845e-07,4.424475633405801e-07,0.7868340261873737,-0.6171646581208714,6.627953191080562e-08,2.5789949317256946e-10,-7.368778309503285e-07,-2.683534497162904e-05,6.758851164285207e-06,9.799999982675326
1727705970.3758824,-3.462156023383342e-07,4.434971345035828e-07,0.787089408705193,-0.6168389276819297,6.390756791992786e-08,-4.394383828690326e-08,-0.054966646352928805,0.3802274405594515,0.052503568253890076,9.799999921919312
1727705970.4405396,-3.4627925214159886e-07,4.44640041075746e-07,0.7880796991678807,-0.6155732188449601,6.185023513331096e-08,-1.3326678875411568e-07,-0.13260005606210443,0.35397010769599063,0.04570685190966366,9.799999930193414
1727705970.4705462,-3.4583837342155803e-07,4.461684705323261e-07,0.7896144002981226,-0.6136033725799732,6.109746246814201e-08,-1.9358881234561192e-07,-0.1727703492365876,0.04778718061932282,0.003648272110185053,9.799999917395006
1727705970.820848,-3.4722320725275076e-07,4.5038607989253796e-07,0.7911946215271748,-0.6115644453907921,7.164685320722527e-07,-1.954246473420298e-07,-0.16824813717106582,-0.08110726653982048,1.808096522182613,9.800010892714576
1727705970.8272376,-3.4789789623880975e-07,4.546665262374888e-07,0.793570267728086,-0.6084786193266334,-1.4890249304103707e-08,-2.464989164505279e-07,-0.22040986328092693,0.16680275114242926,-0.1493784595329627,9.799999426354054
1727705970.857365,-3.467349050831299e-07,4.563334476822859e-07,0.7956121213690637,-0.6058063653761734,4.376386985783302e-08,-2.5887639940435777e-07,-0.22465424541602436,0.011986327564141261,-0.00702137596810796,9.800000015337684
1727705971.0013359,-3.455681036126947e-07,4.580316796615088e-07,0.7976497886275575,-0.6031208955939791,4.2609009408655884e-08,-2.59385767225433e-07,-0.22474500755573693,0.008689048332586108,-0.007032502686524436,9.79999999630099
1727705971.0455778,-3.421911468567549e-07,4.580309784012835e-07,0.8005138964390415,-0.5993141927300377,4.3870199122412516e-08,-2.7824577036489015e-07,-0.24264316475784828,0.01618313043693958,-0.015253406869496186,9.800000377526114
1727705971.0769184,-3.408704917922586e-07,4.598542542604175e-07,0.8028887335998236,-0.5961289134559266,4.3748026357877605e-08,-3.1542239218242686e-07,-0.2868648105401476,0.31370483123470105,0.024389825537625618,9.79999995906759
1727705971.3358326,-3.411534520027402e-07,4.6471477407715146e-07,0.8057249272786935,-0.5922899134388595,7.005367095438592e-07,-3.732986782766139e-07,-0.3191541981554344,-0.10114607731326848,1.7867896335171711,9.80001032032751
1727705971.3440683,-3.460618553727968e-07,4.77629930918962e-07,0.8092840507517691,-0.5874175050153512,6.388921459289878e-07,-3.507825801265724e-07,-0.2924150934116904,-0.058238939195992996,1.6985612359388278,9.799997865352607
1727705971.3732176,-3.494474350537122e-07,4.867740758564854e-07,0.8117497278697586,-0.5840054617064928,6.198321450915399e-07,-3.3596492850755695e-07,-0.27478957649835356,-0.044084070421087695,1.7009940973567315,9.799997834488698
1727705971.6532588,-3.5089681028730645e-07,4.928617668409636e-07,0.8138370605277985,-0.5810931413388961,6.080864794641786e-07,-2.818244985799193e-07,-0.2277304324869757,-0.035483062101844536,1.707607934720931,9.800005443784928
1727705971.6589837,-3.510070247739069e-07,4.96810775274468e-07,0.8159906304279021,-0.5780651269999816,1.2872608086517627e-07,-3.1346168126241225e-07,-0.2625329350374401,0.2656277280771271,0.44685768458354247,9.799998690776832
1727705971.6987412,-3.5008624484712333e-07,5.015476614343165e-07,0.8193244500662058,-0.5733301365908958,7.533270575621436e-08,-3.7614940992740956e-07,-0.30934972764271496,0.23565741144011615,0.3061957102636102,9.799998756136521
1727705971.7286162,-3.474671412652131e-07,5.02954146813225e-07,0.8220168023600234,-0.5694632355450422,-3.1288274749571374e-08,-3.9055604890207445e-07,-0.3146934580450762,0.07987066797031606,-0.011701350984796521,9.799999961594018
1727705971.7894166,-3.453431812357435e-07,5.051584898304994e-07,0.824732581963955,-0.5655229157573489,-2.864509151235036e-08,-3.971062407743901e-07,-0.319703468194466,0.08370510566017068,-0.0015242322198826476,9.799999488156292
1727705971.8385887,-3.442512313311903e-07,5.107360153572265e-07,0.8283558820220991,-0.5602022248429677,2.439374621570463e-08,-4.083039240451906e-07,-0.3288173966512741,0.1545436436829622,0.17383515447493478,9.7999956733098
1727705972.0697646,-3.4285858468058477e-07,5.14310462157517e-07,0.8311174115534478,-0.5560969773450624,5.041216408243496e-07,-4.12866047045164e-07,-0.32838650296711197,0.05304307506313989,1.4885721044045195,9.800008862752774
1727705972.0784163,-3.4159486917025035e-07,5.182491826617464e-07,0.8340179630150616,-0.5517372901733415,1.1106768082809589e-07,-4.484910542491277e-07,-0.3630883263890254,0.3052985828981641,0.4520921894125546,9.799999008400302
1727705972.1164696,-3.3810914105939925e-07,5.218417821370302e-07,0.8382698829925787,-0.5452555394191074,-1.0946905190373002e-08,-4.966512795194089e-07,-0.3928167132473098,0.13749186497054033,0.09186289929056483,9.799998078516964
1727705972.1911085,-3.326561864057765e-07,5.203836512561908e-07,0.8414585471558567,-0.5403216758727835,-7.491580869259349e-07,-4.93696949466954e-07,-0.3883971573394283,0.06255045469113807,-1.9678225860318197,9.79998858766655
1727705972.2224057,-3.238964905450567e-07,5.1342063408488e-07,0.8445207109831923,-0.5355228928067174,-6.419008172720189e-07,-4.6652543934461473e-07,-0.3767505205696203,0.081395491179223,-1.7231621283648217,9.80000391961339
1727705972.2522871,-3.162363694697873e-07,5.079188069807594e-07,0.8475819929297954,-0.5306644563759647,-7.102228188959317e-07,-4.6226715554785776e-07,-0.3776449498978193,0.015779432653277786,-1.9662318743631682,9.80000249387545
1727705972.4915967,-3.051475457755012e-07,4.985121422928457e-07,0.8514266612473872,-0.524473679527186,-6.822242279322306e-07,-4.2416062574576036e-07,-0.35631076834868813,-0.02023528853373138,-1.9627638106194434,9.800002430101813
1727705972.4975183,-2.9783973984974814e-07,4.924539538199419e-07,0.8541164946275246,-0.5200817374267803,-5.225845875419776e-07,-3.9394906162875704e-07,-0.33899145194800556,-0.008772571839018294,-1.5666996845117243,9.800004019868037
1727705972.5151873,-2.940595082734087e-07,4.920050824148969e-07,0.8569287079100489,-0.5154349518215517,-1.1430984081124784e-07,-4.221966616012491e-07,-0.3761275846514259,0.2223420266010389,-0.43096809034622735,9.80000090102433
1727705972.796642,-2.889800361340689e-07,4.923448965362294e-07,0.8611496817093194,-0.5083514784985007,-1.5076532430668146e-07,-4.86523518597823e-07,-0.43257933225509954,0.19076936322725802,-0.5582698314163796,9.799999673523303
1727705972.8015428,-2.8490896865673296e-07,4.929239537626435e-07,0.8646462050750457,-0.5023812696040704,-9.740980938071158e-08,-5.326898789464807e-07,-0.47593845328368456,0.22019231137755046,-0.42461237445550476,9.800000571741782
1727705972.830856,-2.807136862647406e-07,4.939962084659962e-07,0.8684220756985893,-0.4958256734367744,-4.6220002192506866e-08,-5.800147716355257e-07,-0.516752589855217,0.16519625771149007,-0.30713333132128035,9.800001275072558
1727705972.8716888,-2.7605976088330483e-07,4.977959387854513e-07,0.873559034731658,-0.48671820680797395,5.8068383770069006e-08,-5.957989560580573e-07,-0.5237787368742597,0.00911479842396605,-0.03899636505444612,9.800000054959472
1727705972.93556,-2.725623541955711e-07,5.00717747004113e-07,0.8773569963405148,-0.4798382029101319,5.6709248752319425e-08,-5.970748858214181e-07,-0.5239378086910287,0.005646563981762264,-0.03841179803695719,9.800000031197754
1727705972.9646938,-2.6904429539610654e-07,5.03468030102546e-07,0.8808383577951401,-0.4734171389339792,4.497040834491311e-08,-5.372292735896044e-07,-0.4499392045496845,-0.5141315292492321,-0.12394343032449978,9.80000013393754
1727705973.2006874,-2.6621208790564567e-07,5.057410146376583e-07,0.883493993458335,-0.4684424868889634,4.3810499281403724e-08,-4.1033183520562755e-07,-0.33894392800733425,-0.5160261169439448,-0.1023413130019627,9.800000109788376
1727705973.2075784,-2.6372568536185884e-07,5.080337043807927e-07,0.8857936581731207,-0.4640792983316028,4.251386551968434e-08,-2.4106810561050877e-07,-0.19155470821952889,-0.5093638691172497,-0.08145466054938585,9.800000087329266
1727705973.232061,-2.628221629961389e-07,5.092211640204096e-07,0.8866390167375732,-0.4624621649370909,4.171441625134129e-08,-1.2001234145031834e-07,-0.08755271222425914,-0.47349780939416564,-0.06856475461310844,9.800000073171866
1727705973.262982,-2.627879128249182e-07,5.101662585310961e-07,0.8868313571299724,-0.46209322004405345,8.153419498456889e-08,-1.5558172608089467e-08,-0.006288931758525522,-0.2250605015983531,0.08068416451886133,9.800000720278542
1727705973.36587,-2.6274568999136606e-07,5.11092271175746e-07,0.8875219913443518,-0.46076535772541116,3.911219901185331e-08,-1.1184149795224319e-07,-0.11403211252498445,0.3602116713007768,0.04745786085495,9.79999993318097
1727705973.3958642,-2.6199946076065257e-07,5.121282002822884e-07,0.8886488817713938,-0.4585882302525006,3.762866652610147e-08,-1.9825458830493126e-07,-0.1875411112608524,0.33549274478244445,0.03899278902584014,9.799999943448773
1727705973.597617,-2.606801175039728e-07,5.134325774039795e-07,0.8902495766947737,-0.45547304112806164,3.625352330918666e-08,-2.787882708201043e-07,-0.255917169842562,0.31266950916138453,0.02875805526459462,9.799999955701331
1727705973.6044111,-2.581918056213576e-07,5.156564299643692e-07,0.8929240256055138,-0.45020737943320166,3.799083974821305e-08,-3.4898386481960113e-07,-0.3042961588149221,0.025686934079944514,-0.008065702317982119,9.799999927868193
1727705973.6446223,-2.560954640582179e-07,5.173316262604396e-07,0.8949734942330299,-0.4461193165734784,3.631289785678068e-08,-3.512049236484325e-07,-0.3049368014878551,0.0023548874726373376,-0.01293256698452686,9.800000006177385
1727705973.9046533,-2.539787613183088e-07,5.189843751214632e-07,0.8970047789666208,-0.4420208439776454,3.521031839756345e-08,-3.5160483618645166e-07,-0.30495049792749224,0.0018558810815316649,-0.013007889636309836,9.800000006805785
1727705973.9066,-2.516744788619489e-07,5.206452488249965e-07,0.8993051663064013,-0.4373216411913332,3.103045133691753e-08,-4.13893019986577e-07,-0.37072917659683846,0.30968384632529783,0.011462063971378656,9.799999977673826
1727705973.939173,-2.478235050774252e-07,5.233384478587483e-07,0.9029808213749948,-0.4296808539237049,5.849302403808383e-08,-5.132718373697922e-07,-0.4520552151048735,0.22124709750643154,0.06304690587397947,9.800000479711537
1727705973.9692185,-2.4447944629875925e-07,5.255570646111547e-07,0.905924442529842,-0.4234393751490988,3.5849606724314364e-08,-5.345623410716124e-07,-0.46147365792351014,0.01730811524396313,-0.02710621678215546,9.800000002528826
1727705974.0094788,-2.410538670592697e-07,5.277282107836491e-07,0.9088368173623651,-0.4171518181745229,3.4479077603564797e-08,-5.362996725114213e-07,-0.4620401316123932,0.005013859518556722,-0.029759440089245578,9.800000026288313
1727705974.0622299,-2.363926200545273e-07,5.305516971661267e-07,0.9127762245309085,-0.40845999061200955,2.5715784453204317e-08,-5.70504256882144e-07,-0.5031882118583122,0.3120810860199585,-0.015573596906842789,9.79999985878614
1727705974.301334,-2.3243540041168887e-07,5.32893099073406e-07,0.9160761999655085,-0.4010042342125778,5.594126588230735e-08,-6.4248499165788e-07,-0.5585443460219133,0.16667563015620737,0.035657256567504896,9.800000551341878
1727705974.304087,-2.3200422585712395e-07,5.441351484424415e-07,0.9193153635768974,-0.3935216160405007,6.691351227857808e-07,-6.384801501813684e-07,-0.536155068060842,-0.08673929879030172,1.7424068631696905,9.799997803291713
1727705974.3364446,-2.3117061166562582e-07,5.584747074810701e-07,0.9233451005773947,-0.3839711255281517,6.083315923691688e-07,-6.205632772705594e-07,-0.5085393731613462,-0.027467445731952814,1.6575122719631437,9.799997191115125
1727705974.3665493,-2.30261425853394e-07,5.685270365719608e-07,0.9261829863085077,-0.3770743638491994,5.901299430227831e-07,-6.103667922116096e-07,-0.49156188370365594,-0.001850400992985744,1.6618181969883685,9.799997841830187
1727705974.4428074,-2.2829861066174376e-07,5.758409336100628e-07,0.9288043186638333,-0.3705705568863087,3.0082889537613884e-07,-5.740578576336156e-07,-0.448702172756797,-0.17117473630166205,0.8843556788742093,9.799998460482126
1727705974.473364,-2.2578863984493125e-07,5.805481568614556e-07,0.9310312277906503,-0.36493951947993536,3.10052620303415e-07,-4.946423422221287e-07,-0.38339464039667226,-0.16721808553938922,0.9431590017469346,9.800001533552303
1727705974.6788418,-2.2226010642714823e-07,5.838590238400949e-07,0.9334528482662056,-0.3587001255412629,-3.729203074577474e-08,-4.0522486286132116e-07,-0.31821663461236377,0.01614967396958104,0.037782892421021556,9.799998707462107
1727705974.682217,-2.1945133786813545e-07,5.845435679768901e-07,0.9349931565052769,-0.35466575432075315,-5.619778716814216e-08,-3.591129128784058e-07,-0.2834877883483927,0.04130708746987224,-0.006538899951975433,9.799999627295128
1727705974.707833,-2.166211886430343e-07,5.846869113128664e-07,0.9364886685017282,-0.3506978382703142,-5.78209961963909e-08,-3.558256620831445e-07,-0.28259830958874554,0.07288368696074136,-0.010995898640217185,9.80000002314117
1727705974.9980252,-2.1306970140713172e-07,5.853234857726278e-07,0.9384286396870041,-0.3454731367484469,-5.643258242330081e-08,-3.4990639356436654e-07,-0.2782731070365104,0.07226394019908397,-0.010063441711422013,9.799999994087395
1727705975.00036,-2.1305864945000716e-07,5.928867300244763e-07,0.9398242164158566,-0.3416583706539677,2.9314215647909955e-07,-3.428061648478813e-07,-0.2727647222894981,0.1579083492735636,1.0008198315909347,9.799993495689442
1727705975.0275013,-2.1159430063577632e-07,5.967531538457614e-07,0.9412750029839118,-0.3376408872711303,1.407582455357065e-07,-3.6656554092446124e-07,-0.29268453113788956,0.26048925382741667,0.6104213327144918,9.799993541789187
1727705975.0687737,-2.0763404340780673e-07,5.973894016445782e-07,0.9433393332084604,-0.33182962860693666,-7.498738015706282e-08,-3.9730370478623894e-07,-0.31012593067808353,0.1083261593732208,-0.011059722878355428,9.79999996548973
1727705975.097424,-2.050699636507536e-07,5.993971430973375e-07,0.9449270070082055,-0.32728115042897504,-6.179441963430548e-08,-4.1536751940463197e-07,-0.32426365680089564,0.13724327443458517,0.03215695304456726,9.799998470695469
1727705975.1678593,-2.0171368233251402e-07,5.993717527359543e-07,0.9465106423612921,-0.32267259551504235,-7.518598546238643e-08,-4.166122922572032e-07,-0.3249431114884974,0.11369120071854516,-0.014122903321198898,9.800000026183378
1727705975.1979556,-1.993653103516281e-07,6.023730375355718e-07,0.948089191485787,-0.3180045361113961,-5.234807652204774e-08,-4.2473095109766573e-07,-0.33078732984419634,0.1418459692491939,0.06250707493168577,9.799997556078777
1727705975.390833,-1.9161028155285594e-07,5.92436868036122e-07,0.9501283367411463,-0.3118591728987861,-7.599967394138533e-07,-4.032036493640286e-07,-0.31621657547660875,0.03902840427852847,-1.9560113464511415,9.800002587968399
1727705975.4210565,-1.8536165705280148e-07,5.827345854230416e-07,0.9515495459025384,-0.3074954661329157,-7.373817403373249e-07,-3.753553681726255e-07,-0.30077622201059767,0.013892974328302289,-1.9539021748465777,9.80000253732514
1727705975.4530878,-1.79466470351068e-07,5.732541815619847e-07,0.9528792386145517,-0.30334989140758084,-7.154148011924883e-07,-3.4806763815631927e-07,-0.28492932406001414,-0.009396526963428346,-1.9518184058685222,9.80000248823637
1727705975.4915407,-1.7213423681890254e-07,5.609531445446795e-07,0.95451185327291,-0.2981729732238828,-6.871035353644705e-07,-3.126071811192235e-07,-0.2632251121807033,-0.037435237961582206,-1.9491021525745402,9.800002425135276
1727705975.5308068,-1.6758222799329537e-07,5.537999693216149e-07,0.9556529527409806,-0.2944952188357395,-2.849042484691273e-07,-2.9406097350451464e-07,-0.260249494562898,0.1335088702959968,-0.8637426107205504,9.800008680885902
1727705975.5524595,-1.6482059370770182e-07,5.527378601218946e-07,0.9569227590490315,-0.2903426134993909,-1.0801387481420772e-07,-3.395809960138626e-07,-0.30468752913329233,0.23113250907227353,-0.3796152543527922,9.800000581512512
1727705975.7870939,-1.6027967042168233e-07,5.50237392832732e-07,0.9588299838869159,-0.28398074230322073,-1.1874578795172621e-07,-3.897318100332858e-07,-0.34971824221597925,0.2104846445481037,-0.438113136316034,9.800001201696162
1727705975.818492,-1.5688366652943786e-07,5.495974249981366e-07,0.9604286189141578,-0.2785262428754546,-1.0288311202589493e-07,-4.385227276545082e-07,-0.393626442411181,0.21611494697253744,-0.4092326040498654,9.800000507754808
1727705975.8472726,-1.5326275757729386e-07,5.494923140719731e-07,0.9621685430093634,-0.27245494094054085,-2.127458916186375e-08,-4.849011907553112e-07,-0.43168743221908845,0.12580709643455878,-0.2105833498718167,9.800001785385591
1727705976.0762267,-1.4995957194992692e-07,5.510654101717605e-07,0.9637781359994264,-0.26670527660536575,4.4059220275557686e-08,-4.340399930563999e-07,-0.3610479628555698,-0.515438549791008,-0.10592409529971619,9.8000001154013
1727705976.09029,-1.4682180432520686e-07,5.528379106068196e-07,0.9651967962121709,-0.2615246538692552,4.2937119049585405e-08,-2.646629573856098e-07,-0.21310840517188223,-0.5165813070487089,-0.08456672679474306,9.800000091633803
1727705976.1231673,-1.4552915675254686e-07,5.538532974490704e-07,0.9657523045240108,-0.2594657709722696,4.226422499868227e-08,-1.4193672732153847e-07,-0.10756322489171777,-0.4803629798749491,-0.0704703160229384,9.800000076818712
1727705976.151321,-1.4511531891266598e-07,5.547017471102321e-07,0.9659168550519561,-0.2588525238938364,5.812159319938011e-08,-2.879724888043436e-08,-0.011498541472778585,-0.4187959554249043,-0.012756364988332776,9.800000337650513
1727705976.2108052,-1.453507928327771e-07,5.5549749907976e-07,0.9659230606362528,-0.25882936643813104,4.02928019105501e-08,3.900395479975829e-09,-8.795003908609503e-05,-0.0032057424703716042,-0.0004403330963629039,9.799999992954081
1727705976.244724,-1.4536258625656314e-07,5.561100362643617e-07,0.9661356263643968,-0.2580347873236169,3.8906828774840505e-08,-7.266869802853489e-08,-0.0815530133955417,0.37120901898293845,0.05025594213914531,9.799999930243713
1727705976.4557805,-1.446932658155433e-07,5.568811484462063e-07,0.9666464750013646,-0.25611441265009866,3.7303069578125906e-08,-1.6176127510599644e-07,-0.15733019772160511,0.34565290577469976,0.04269306081732593,9.799999939507439
1727705976.4850352,-1.4291461884952706e-07,5.581517653977252e-07,0.9676356347580982,-0.2523514976099014,3.677179089393574e-08,-2.2830767139053198e-07,-0.2010012881016155,0.01641289140841213,-0.00319066862158582,9.799999980862127
1727705976.517923,-1.414036124491466e-07,5.591082227831076e-07,0.9683934819579563,-0.24942747262683918,3.556811011475795e-08,-2.2981678368876045e-07,-0.20142046997023716,0.001139362956068557,-0.00562121456119381,9.799999998748508
1727705976.5455062,-1.398812014373102e-07,5.60045316572384e-07,0.969142687521205,-0.24650040816161534,3.4495520505247e-08,-2.3013443906181108e-07,-0.2014294315689687,0.000812814123710673,-0.005668643961573289,9.799999999171849
1727705976.5773904,-1.3834943707831422e-07,5.609630946997224e-07,0.9698830498690484,-0.24357107705221925,3.345619816885785e-08,-2.3041807083647527e-07,-0.20142962315581672,0.0008058322970656203,-0.005669635512543986,9.799999999407145
1727705976.6204154,-1.3612547323892582e-07,5.622084732872834e-07,0.9710164749909003,-0.23901256305038004,3.645235077556539e-08,-2.93576338755937e-07,-0.2666817493469105,0.27823247556197367,0.0384802158118526,9.800000056962807
1727705976.8266,-1.339389629148664e-07,5.632276747578577e-07,0.9720614166080515,-0.23472665451885505,2.951059922461251e-08,-3.4991522892785805e-07,-0.31602411819045784,0.30899103133232253,0.020100669433247335,9.79999996830794
1727705976.8555472,-1.3124496881093439e-07,5.644064844269586e-07,0.9733079810942581,-0.22950288437813454,4.4323997454963647e-08,-4.241065612328299e-07,-0.3762641508169462,0.23203101546076257,0.043490427871529645,9.800000248412003
1727705976.9188428,-1.2709838586319866e-07,5.660652898528301e-07,0.9750469982319816,-0.22199853882056286,3.200066753257278e-08,-4.4733865587565374e-07,-0.3865726005304176,0.00837047074514876,-0.020056214828748205,9.80000001351049
1727705977.1355376,-1.2387396332962095e-07,5.672288430093269e-07,0.9763894641475639,-0.2160176249783703,2.588428342462085e-08,-4.848238824814863e-07,-0.43057397528712316,0.3106558817238273,0.0001973905894570608,9.799999992148388
1727705977.1542087,-1.2013513794704028e-07,5.684406618544054e-07,0.9779019750712257,-0.2090639307758722,2.4969470697782077e-08,-5.62010698521066e-07,-0.4963422649198625,0.31157609938801867,-0.014060821555882624,9.800000008978241
1727705977.193546,-1.145252942033395e-07,5.704690181948386e-07,0.9799980643048263,-0.1990070198723024,3.289214121320162e-08,-6.003489244729278e-07,-0.5164003927115499,0.015787506756214147,-0.03483980426637765,9.800000009965226
1727705977.2246659,-1.1019658491018022e-07,5.718288398723505e-07,0.9815112680392291,-0.1914043644008318,3.154913438950909e-08,-6.018718236690477e-07,-0.5168554970553196,0.005916079843548307,-0.037291955897075374,9.800000036349726
1727705977.3007731,-1.0584863902583977e-07,5.731412078514464e-07,0.9829657458091339,-0.18378885321355587,3.0569203113003455e-08,-6.024363624617374e-07,-0.5168828661381348,0.005321843739919784,-0.03739120396195881,9.80000003703722
1727705977.3332026,-1.0324644362406348e-07,5.838856106242985e-07,0.9843215422292593,-0.17638339350137477,6.659165085162217e-07,-5.899071402045206e-07,-0.4944719684839937,-0.08836942255366378,1.752708655420072,9.799997787444136
1727705977.5429108,-9.75256195945231e-08,5.847723357147067e-07,0.985956942546293,-0.1669997228872397,-6.648008520802929e-07,-5.611272108774569e-07,-0.4654521999175321,-0.055655737496786616,-1.8925640987021328,9.800002377653051
1727705977.5513613,-9.245063595922303e-08,5.788741660821448e-07,0.9870262387885866,-0.16055903569252022,-3.101355465422845e-07,-5.005987603069657e-07,-0.4128502334732468,-0.3129602451927608,-0.9779026025519267,9.80000286137069
1727705977.5826304,-8.871789743445687e-08,5.771311361460155e-07,0.9878927130685001,-0.15513860727045697,-2.9641058606623443e-08,-4.1521908357153235e-07,-0.3495482758838415,-0.16667597700394043,-0.18694719515078748,9.80000343759319
1727705977.6243706,-8.481785616659173e-08,5.781274370151124e-07,0.9889333078092617,-0.1483607519025527,2.2484940618058726e-08,-3.987666927553581e-07,-0.34220234152811013,0.0007243725747346405,-0.016711102649776363,9.800000019429008
1727705977.6545181,-8.19166515664868e-08,5.788992105775703e-07,0.9896817347413741,-0.14328315992803436,2.182483734641136e-08,-3.989189750624469e-07,-0.34215940973496545,0.0022877917488152632,-0.01638570307892668,9.800000014401467
1727705977.6870992,-7.906743666055133e-08,5.796303680833656e-07,0.9903621857872282,-0.13850177241610007,2.1537497385917018e-08,-3.6435183108359964e-07,-0.30651923307159656,-0.1482007785683219,-0.03126072761355039,9.800000094765402
1727705977.8955562,-7.570457115285835e-08,5.804684292271111e-07,0.9911094318991791,-0.13304921645821105,1.611921602376735e-08,-2.902185208003873e-07,-0.2287214225854186,-0.5170070942486442,-0.08621287901759955,9.800000100694836
1727705977.9262128,-7.40381117651612e-08,5.809803667624507e-07,0.9914517179653486,-0.1304741006606901,1.781931259282242e-08,-1.9059292005548396e-07,-0.1601630367394232,-0.0967012714753845,-0.015270766214713774,9.799999949431504
1727705977.9608924,-7.27198846616595e-08,5.81412857578036e-07,0.9917576563691499,-0.12812786985206537,1.6651075699069932e-08,-1.8249052995493483e-07,-0.15745161381766437,-0.0016663821066897444,-0.0037610071307678907,9.80000000116073
1727705978.1731203,-7.13978734292705e-08,5.818281898538982e-07,0.9920355605227547,-0.1259581146967534,1.4989147561323976e-08,-1.6436659922310396e-07,-0.12269029516611468,-0.485650382844966,-0.07197174088843847,9.800000013689308
1727705978.189968,-7.059397385542637e-08,5.822347638321149e-07,0.992154847281009,-0.12501503516159002,1.509477169081627e-08,-2.4815155961964638e-08,-0.018742476045978118,-0.11223057769806358,-0.016001261983959868,9.800000049330688
1727705978.216042,-7.057626420895195e-08,5.824624361850927e-07,0.9921332401623044,-0.12518639608480836,1.4864926626425882e-08,3.098054061975978e-08,0.03927364988756789,-0.3855014747756925,-0.0536784261467222,9.800000063466637
1727705978.2473035,-7.105866098352115e-08,5.82620129915271e-07,0.9920349882911972,-0.12596262146263587,1.4914190498937377e-08,6.561789517011705e-08,0.05369267929107406,-0.011423317843374116,-0.0020941073983155906,9.800000005893631
1727705978.3247504,-7.17835939756452e-08,5.828189180046694e-07,0.9918984270293983,-0.12703350131465446,1.4387006513728892e-08,6.643436402355697e-08,0.05400580652362515,-1.0032530686852776e-05,-0.0004067750171065249,9.799999997543232
1727705978.3539183,-7.253172775943904e-08,5.829293008280486e-07,0.9916947604424939,-0.12861377107666044,1.4017823286809111e-08,1.4141030169933166e-07,0.13170631182271364,-0.3535865924335215,-0.05261041238463615,9.800000062219995
1727705978.5721943,-7.423363445232634e-08,5.862378733365798e-07,0.9914242517039697,-0.13068264281408987,6.727925250820117e-07,1.6637107482463444e-07,0.13657182752650154,0.07215668267806147,1.8310217992972389,9.800010819645992
1727705978.5816736,-7.749166879437519e-08,5.983513309435397e-07,0.991084269311642,-0.1332365232308469,6.128538690555817e-07,1.543826872882813e-07,0.12434401147130651,0.03590392690912688,1.7328192947495986,9.79999778656095
1727705978.6112444,-7.984376549512464e-08,6.071191235850047e-07,0.9908453554479147,-0.13500178364347926,5.945527650868146e-07,1.4661751283910374e-07,0.11604149663260149,0.02683087781033542,1.7326964897629678,9.799997759179094
1727705978.6452863,-8.211961210007368e-08,6.156242892163824e-07,0.9906193966074489,-0.1366499581584601,5.767984531346151e-07,1.392775599071789e-07,0.10840949301086547,0.018837462258809348,1.732543566878112,9.799997732654719
1727705978.6726828,-8.372847796488329e-08,6.199715363478829e-07,0.9904424185706848,-0.1379268483489008,1.4936179188154718e-07,1.0004261200866013e-07,0.0663616579788019,0.26758958406681194,0.6209060606371831,9.799997941353661
1727705978.7120721,-8.43835566011593e-08,6.193212918492721e-07,0.9903065841102348,-0.13889877417575736,-6.18362846238492e-08,6.26423587738071e-08,0.04753030486421324,-0.006978362908483328,0.0009896116516041678,9.799999977127024
1727705978.9193542,-8.517257572844985e-08,6.21438028430893e-07,0.9902081950967698,-0.1395984611763456,5.638695239414643e-07,6.090720911826816e-08,0.046421943466563115,0.005752427855195944,1.731858294554326,9.800010147038954
1727705978.949418,-8.679102202079005e-08,6.295797358629605e-07,0.9901148237937065,-0.1402591733312098,5.470766354676597e-07,5.801983241312196e-08,0.043543210844030615,0.002925124435957849,1.7316166627053278,9.799997689599712
1727705979.0095825,-8.780572186242987e-08,6.340974758159691e-07,0.9900720729558141,-0.14056062874278996,3.280447429545705e-08,9.558940749103602e-09,0.0026170302624923822,0.09029126909675929,0.357705401499025,9.799992196715227
1727705979.283505,-8.809986884426347e-08,6.359267879855764e-07,0.9900711478609021,-0.14056714471377435,5.337141654061121e-07,1.3593854776878829e-09,0.00029756501408076006,0.0006601905880257437,1.7299924419314667,9.800010053068995
1727705979.288851,-8.899750395756451e-08,6.421034235057746e-07,0.9900804043799069,-0.1405019318817356,1.9680767115011117e-07,-7.304754378751106e-09,-0.013901637492206041,0.20045897234009205,0.8674113130466181,9.799992460190952
1727705979.3169117,-8.863720149692373e-08,6.424576796629785e-07,0.9901919457341142,-0.13971367364316445,1.1865441709663728e-07,-5.647299660690931e-08,-0.04510878379300927,0.061177560618967425,0.6333438077762732,9.800003508468894
1727705979.3459053,-8.79962436745778e-08,6.410995414005886e-07,0.9902884887745675,-0.1390277274509093,-1.064810501200284e-07,-5.995987276174535e-08,-0.046308542768471316,0.019724077147963107,0.001604721694872952,9.799999941651135
1727705979.407575,-8.733261589221256e-08,6.396040464590119e-07,0.990384870559315,-0.13833946713354156,-1.039461961810636e-07,-5.989196319333772e-08,-0.046334501308213136,0.018820280059350804,-0.00028197017718894883,9.800000020659771
1727705979.4484432,-8.661395200576988e-08,6.376839697966036e-07,0.9904984464671779,-0.1375239162680184,-1.9570630335386e-07,-7.591139154715844e-08,-0.07201431993627286,0.3783924540043693,-0.214367670195843,9.799998458663834
1727705979.665664,-8.487540815876883e-08,6.34310879524155e-07,0.9908056117381672,-0.13529316223574078,-1.2785264019581143e-07,-1.6145536155391836e-07,-0.13815932709247447,0.42178428633526605,-0.04781141839136156,9.799999728245117
1727705979.6761706,-8.301368613441834e-08,6.326967576197748e-07,0.9911873630474975,-0.13246739725132706,-1.1852697071155266e-07,-2.634406313151743e-07,-0.21537437482054844,0.4255906451687381,-0.041634942315194434,9.800000187521633
1727705979.7013814,-8.066910316360936e-08,6.319822056477535e-07,0.9916373265306764,-0.129055850819274,-8.471364180728627e-08,-3.000050066243404e-07,-0.2310791813023837,0.10373652624727453,-0.0028507644438928587,9.799999902892337
1727705979.7424676,-7.757717932858882e-08,6.319633865382213e-07,0.9922264818054258,-0.1244452040201689,1.6823055055766018e-07,-3.0282317123720996e-07,-0.23548320135021758,0.1475510928790856,0.6949844026840165,9.800004080138015
1727705979.7739031,-7.512152862431022e-08,6.312186047216789e-07,0.9926623666329764,-0.12091908811355573,-8.206682466048854e-08,-3.073808823037487e-07,-0.23702889596643711,0.09703374627296979,-0.005473905671083388,9.799999937344714
1727705979.8046944,-7.260081404909333e-08,6.302209599966322e-07,0.9931098442197659,-0.11718718920338356,-1.7849039461773735e-08,-3.3237896808823715e-07,-0.2654026108792156,0.32602785328501244,0.19206998934771513,9.800002560095438
1727705980.0450475,-6.888444181433957e-08,6.289551058677046e-07,0.9937440129524044,-0.11168185493109967,-1.1395397265054795e-07,-3.6533341581473664e-07,-0.2958225064308247,0.45108374736220874,-0.06835002157696314,9.799999393782702
1727705980.0756156,-6.558597738087579e-08,6.273486002565369e-07,0.9942827536250782,-0.1067792388216649,-9.035226323287464e-08,-4.3003494459535874e-07,-0.33672882918525293,0.20616472263580404,-0.05745057597167773,9.800001227899722
1727705980.1067188,-6.181134520773716e-08,6.231604498556811e-07,0.9948100325940973,-0.10174968820462499,-7.668462420641096e-07,-4.317683225579351e-07,-0.33406308020111664,0.0724622394987309,-1.9584942298245036,9.799988707503243
1727705980.3618333,-5.752977310775258e-08,6.122669570253714e-07,0.9952930442895938,-0.09691107257880344,-7.441046138948643e-07,-4.0378905075097056e-07,-0.31918424564497405,0.045213882555272304,-1.9563862304603643,9.8000025557617
1727705980.3651373,-5.4627487979147e-08,6.238499487373972e-07,0.9958674262058606,-0.09081888251747311,5.23973324735082e-07,-3.8216888633146487e-07,-0.299051901539081,0.05672388546452492,1.5914988931812792,9.799997113954653
1727705980.393797,-5.17902671308518e-08,6.260237007746136e-07,0.9962968739661597,-0.0859798751154196,8.839128901712414e-08,-4.226707544491678e-07,-0.3385442014745465,0.33686660093142123,0.4381654387761073,9.799999233308842
1727705980.4265282,-4.842319502697779e-08,6.27192509309809e-07,0.996754115338054,-0.08050610881328613,1.567752031706473e-09,-4.774140322409817e-07,-0.3767127220044564,0.2689527982120303,0.18624279601958255,9.799998088316926
1727705980.4779952,-4.355730657076486e-08,6.276671877845831e-07,0.9973264243388167,-0.07307532630891628,-6.239437680770712e-08,-4.7666893136671183e-07,-0.3713172674677162,0.1511283061872595,-0.004804721100343787,9.799999696039249
1727705980.5114973,-4.004867310301228e-08,6.295694129991608e-07,0.997716116356518,-0.06754665914809682,3.552663323168686e-08,-4.7398765903927253e-07,-0.36799340842407335,0.14140434524182158,0.2722129075031423,9.799993298908744
1727705980.739991,-3.639776455839088e-08,6.289693905310055e-07,0.9980725136341618,-0.062058500848712006,-6.738025365199263e-08,-4.7052425303060836e-07,-0.36632152267951945,0.15857742477701045,-0.011900387727571625,9.799999884099245
1727705980.7450302,-3.1742897055702335e-08,6.317467692376899e-07,0.9985021374221611,-0.05471271847546416,-6.188048632957427e-08,-4.7631312727015705e-07,-0.3694823952967854,0.1753471242894582,0.018124315975622935,9.799999203291552
1727705980.7711186,-2.808231068538707e-08,6.320801928273498e-07,0.9987940065532622,-0.04909717377692219,-6.16740142211903e-08,-4.841152783813099e-07,-0.37547044279748953,0.18154309452899742,0.019006826764799766,9.799999172277044
1727705981.0624738,-2.4340213384012812e-08,6.311836899517954e-07,0.9990548156385678,-0.04346809575985955,-7.296769403425139e-08,-4.836656739678265e-07,-0.37571146425873275,0.1769370728181891,-0.01830506641913804,9.800000023936004
1727705981.0724785,-2.0873845741781718e-08,6.359138610841751e-07,0.9992787122691371,-0.037974401974623484,1.4785815982349204e-07,-4.723356066703443e-07,-0.363136683904711,0.14176371384339678,0.6101364810658545,9.79999781539388
1727705981.1011562,-1.606327661437065e-08,6.348588439270631e-07,0.9995267925011384,-0.030760218984634824,-7.967138853628536e-08,-4.666847163367582e-07,-0.36051349735369614,0.18004049044737913,-0.015041615099466532,9.799999977951462
1727705981.1285799,-1.2475159670653826e-08,6.337930574950742e-07,0.9996784971250448,-0.0253555198213144,-7.836014705788685e-08,-4.6543493375067433e-07,-0.36044533028259446,0.1814486527201536,-0.017328661443252142,9.800000035053607
1727705981.159137,-8.901380457010337e-09,6.330356138819005e-07,0.9998015982422682,-0.01991893952510293,-6.483166120466658e-08,-4.6864337499465115e-07,-0.3640924205047398,0.19772044439424594,0.017002705464343765,9.799999271091703
1727705981.2347121,-4.1256701262430485e-09,6.319568234704381e-07,0.9999195670127161,-0.012683040041858051,-6.093298033842827e-08,-4.618259275509435e-07,-0.35812013658217934,0.15462108978249423,0.016713280485537867,9.799999334257391
1727705981.5065866,-6.150702066757463e-10,6.309257701742932e-07,0.9999731716435998,-0.007325025094951476,-7.256030769892088e-08,-4.581953885486712e-07,-0.35705889540860775,0.17962644740596256,-0.01689530961887098,9.800000026706508
1727705981.5091023,2.8528206742452286e-09,6.195236600443044e-07,0.9999977792841221,-0.0021074692025563335,-7.550006833354255e-07,-4.358944022027156e-07,-0.3431756198251611,0.10230995477040535,-1.9597618512731252,9.800002579113684
1727705981.5398562,7.043541838742264e-09,6.048209284723464e-07,0.9999898013130344,0.0045163336404506205,-7.252090772513689e-07,-3.9965510051714393e-07,-0.3238934219240122,0.0644272414603245,-1.9569911570929284,9.80000251248886
1727705981.5712585,9.87487762015388e-09,5.941603875023e-07,0.9999574480521889,0.009225079110812218,-7.036016278444857e-07,-3.730029118677819e-07,-0.30888974888991344,0.037933047585647174,-1.954913591139726,9.800002464295297
1727705981.6622376,1.2450289765345274e-08,5.838065992956627e-07,0.9999060925134371,0.013704238547565029,-6.826087350826196e-07,-3.4683700667067946e-07,-0.29345467280348414,0.01319195613174662,-1.952851067389248,9.800002417545267
1727705981.692874,1.4779871225367872e-08,5.737529088458568e-07,0.9998389288338763,0.017947601176699635,-6.622155875678859e-07,-3.2118618107056986e-07,-0.2776197769430983,-0.009705755953413912,-1.9508166509070248,9.800002372239422
1727705981.9255497,1.813191984888344e-08,5.867539315044643e-07,0.999730518622816,0.023214007276002147,6.424120210047369e-07,-3.0014913303754154e-07,-0.2549972536421768,-0.01594731842346906,1.7039445165916245,9.799997870581475
1727705981.932096,2.0564755623253047e-08,5.961575078604055e-07,0.9996387689957378,0.026876225931661335,6.233581272743748e-07,-2.863464376525757e-07,-0.23892093077291474,-0.0036478687704067166,1.7062016248310696,9.799997839349526
1727705981.963253,2.29224409645097e-08,6.052742550830927e-07,0.9995407155396697,0.030304421757860966,6.048652747638225e-07,-2.725790903621602e-07,-0.2235912075278097,0.007398233949905398,1.708273713843522,9.799997809168431
1727705982.237723,2.5746207244961062e-08,6.129991390632316e-07,0.9994130720341491,0.03425655334221789,1.8421156777569342e-07,-2.210187710821113e-07,-0.1694323859044825,-0.23025572372915787,0.5680959189124163,9.799998145617534
1727705982.240202,2.741675716382793e-08,6.184117023703626e-07,0.9993340235406396,0.03648985329777449,1.8545817533132376e-07,-1.7258027874657807e-07,-0.13031400237482557,-0.2216278639049505,0.6065768655791486,9.799996538072698
1727705982.2687573,2.851735776710267e-08,6.19569591968967e-07,0.9992717344276854,0.038157578192283714,-4.6083727441648345e-08,-1.3240051942656637e-07,-0.10885735790582134,0.0322784808521502,0.015753116658171685,9.799999121656114
1727705982.3074083,2.9751945563282442e-08,6.184962083697597e-07,0.9991866535080742,0.04032408028650192,-5.124885417570778e-08,-1.308002257368802e-07,-0.10836404778428277,0.04942025227911984,-0.0015987636205455661,9.800000011126794
1727705982.3384905,3.0675867708091853e-08,6.17816823892839e-07,0.9991204967857594,0.041931287867110034,-4.7314239428345636e-08,-1.2863077684282835e-07,-0.10647016400300327,0.04313378327195855,0.004924970454383099,9.799999685502684
1727705982.3688593,3.16834361572226e-08,6.19345132475267e-07,0.9990544265596173,0.04347703728693714,4.1055753039961747e-07,-1.230327016669273e-07,-0.09675265610396577,-0.08561663457397563,1.2527862528681448,9.80000749556121
1727705982.4091175,3.249265716061603e-08,6.189029640708205e-07,0.9989924401917316,0.044878774931863485,-5.099967576014619e-08,-1.1202023490837961e-07,-0.09315831074109292,0.041207300834234246,0.001976711802492039,9.799999851900889
1727705982.6352475,3.36205460514883e-08,6.222635154776464e-07,0.9989272688372488,0.04630671196453068,1.4360518573249284e-07,-6.437418931614714e-08,-0.04454070695175806,-0.2510167315241863,0.5169101019938367,9.799998495796261
1727705982.6532521,3.3836378595353976e-08,6.222456498286088e-07,0.9989102466795974,0.046672465952818765,-5.5823400745124744e-08,-2.2225467410694968e-08,-0.022010851190731706,-0.006356780631034035,0.005648831243138711,9.799999647174591
1727705982.68327,3.392028778981567e-08,6.213803328389663e-07,0.998893778726526,0.0470235985549281,-5.706287578699796e-08,-2.345515516871741e-08,-0.02360437323626762,0.0130433535553906,0.00013503433129941807,9.800000009430809
1727705982.7626622,3.4068931503381384e-08,6.201847193126025e-07,0.9988684080778394,0.047559471650317486,-5.4970184661456705e-08,-2.9655870078172723e-08,-0.02839605503825173,0.017879348380378392,-0.00029900208541184506,9.80000004203722
1727705982.8007305,3.4045913170721464e-08,6.159099514088725e-07,0.9988481235243305,0.04798360273617447,-7.467508685502953e-07,-2.904381849974656e-08,-0.027958294622870104,0.005769420738671239,-1.9240452414302436,9.799988703907347
1727705982.8272696,3.368011150593564e-08,6.049382305642672e-07,0.9988286700856042,0.048386855804611495,-7.245238373832402e-07,-2.6512097547967716e-08,-0.02640078950738679,0.003721498831992151,-1.923812038449969,9.800002475808682
1727705983.0374448,3.415715970728236e-08,6.103590798907151e-07,0.9988043456889002,0.048886389032063216,5.954172528014422e-07,-2.5235567742608707e-08,-0.024130853292990383,0.0037637624823476015,1.728498368971562,9.799997767580969
1727705983.0608313,3.45284145577164e-08,6.156336501559762e-07,0.9987980333538986,0.04901518711587238,1.6785655894332432e-07,3.185837145180498e-09,0.008199475754668874,-0.2551343752325047,0.5493955667342263,9.799996712140809
1727705983.092205,3.4251178201925366e-08,6.170815462578392e-07,0.9988295159875907,0.04836939106101157,1.133384744480945e-08,7.023521181046437e-08,0.05506746023963921,-0.13974105746002574,0.14567802889422718,9.799997418706349
1727705983.3706768,3.3535107438542845e-08,6.163717063475905e-07,0.9988774040005148,0.04737015702751207,-4.802539656445857e-08,9.641276859694977e-08,0.07304968862341092,-0.0824517159575957,-0.01292088476656611,9.80000028023361
1727705983.384077,3.240098162837368e-08,6.155163854216442e-07,0.9989479362267099,0.04585870373240403,-4.4056625466156766e-08,1.0193417045300251e-07,0.07591387602920521,-0.0384096413633229,-0.0008203375922300229,9.800000010674582
1727705983.4136064,3.154769033923296e-08,6.149021013139828e-07,0.9989995184068294,0.04472093718319986,-4.2743368768173385e-08,1.0163684140308885e-07,0.07593081679655936,-0.037825210783010044,-0.000723799760782859,9.80000000966322
1727705983.443867,3.070062375761746e-08,6.143295633155289e-07,0.9990499214673778,0.04358043615715923,-4.0926614696350116e-08,1.0163524134719076e-07,0.07622820177010003,-0.038838985128079415,0.000771004783343454,9.799999936497047
1727705983.4983075,2.957547840382522e-08,6.135618658325391e-07,0.9991152205297337,0.04205681996352573,-3.988289309540236e-08,1.0127527869024724e-07,0.07625298211696327,-0.03798757911437847,-0.0007283284945706767,9.800000009058575
1727705983.530492,2.873796907297588e-08,6.1300555254642e-07,0.9991626714188572,0.040914007903848304,-3.8697885283660124e-08,1.0095898058980315e-07,0.07625312861598445,-0.037982528777236506,-0.0007282092991183908,9.800000008847409
1727705983.7581103,2.7980171793230898e-08,6.121157154770639e-07,0.999190371092469,0.04023185697576037,-7.232722849156816e-08,4.410074551391307e-08,0.014996444472257075,0.40152667194182484,-0.03800632355651397,9.800000054672118
1727705983.7890072,2.8227784701888707e-08,6.1144572284811e-07,0.9991462853312103,0.04131223194732325,5.6384954258576584e-08,-9.51808334622081e-08,-0.0869546279605372,0.2588721558306084,0.284650135233415,9.800001650410923
1727705983.8155274,2.9035600243613268e-08,6.109528024478733e-07,0.9990881033531626,0.042696156007375474,-3.532372021957877e-08,-1.1363558330445075e-07,-0.09298590117602984,0.05116914965560388,0.00023054262889466166,9.799999973534613
1727705983.8893394,2.985007126209239e-08,6.106218019129729e-07,0.9990321029043201,0.043987013608536685,-2.9401608386071197e-08,-1.0094049134837182e-07,-0.081393864795144,0.006427164806577006,0.009601605536064947,9.799999323220552
1727705983.92661,3.05623371350497e-08,6.100825670189729e-07,0.9989782360269002,0.04519384852178121,-3.39814419351281e-08,-9.791722218949461e-08,-0.08043343114947538,0.0395760845083905,-0.0009438704288452993,9.800000005939758
1727705983.9630837,3.174161867408876e-08,6.088972933860541e-07,0.9988776968046192,0.047363982369810764,-3.1906565979691594e-08,-1.3642688865993674e-07,-0.111424206310441,0.06217172980000211,-0.0013615142133641706,9.800000033891179
1727705984.1527889,3.2795877628855685e-08,6.077314723214066e-07,0.9987796780300933,0.04938779964457435,-1.262434489497478e-07,-1.8000070390859647e-07,-0.1550913865956242,0.30049397239029785,-0.23746938471367163,9.79999908877935
1727705984.1696687,3.428971852308854e-08,6.076213103979667e-07,0.998655710712272,0.051834076256804196,-1.7674106349049397e-08,-2.038705270608086e-07,-0.16576262453719845,0.10049591395066272,0.03030796872256653,9.799998585961038
1727705984.2098768,3.633718557005479e-08,6.069603115973702e-07,0.9984778693959874,0.055153824219904335,-2.8048165101926668e-08,-2.0514035106578452e-07,-0.16627150935202378,0.0830425614558124,-0.0036908933235310936,9.800000008912148
1727705984.4680471,3.786299710091875e-08,6.065794139976481e-07,0.9983404016828574,0.05758856108066318,-2.471828126231515e-08,-1.9808651615265488e-07,-0.16004683017237278,0.06158379346553303,0.0016338338719913302,9.799999667536426
1727705984.4738595,3.934753018122956e-08,6.062785491944916e-07,0.9981984148413716,0.059999371728411244,-2.2497933884009425e-08,-1.9900651621422604e-07,-0.1619082715909111,0.08757663846044296,0.010079838776425957,9.799999435900483
1727705984.5151336,4.133059125879693e-08,6.056388073937539e-07,0.9979986782561113,0.06323478630221174,-2.6101012487626737e-08,-1.9931691766916138e-07,-0.16209572834635808,0.08115123285937928,-0.0035244253905817756,9.800000008633234
1727705984.5492404,4.270061017813481e-08,6.048223392623659e-07,0.9978739014540099,0.06517420345953862,-5.902179995809489e-08,-1.398918420736369e-07,-0.09728909589134496,-0.38383819573661027,-0.15672201799601768,9.800000244465616
1727705984.5874596,4.346123765069265e-08,6.050937090333402e-07,0.9978020337695963,0.06626538617475658,-2.3182177205997005e-08,-8.460852175347487e-08,-0.06997769057294491,0.013834492674502322,0.002828378520398663,9.799999717868708
1727705984.6160858,4.381246977283591e-08,6.044460000964258e-07,0.9977707478851314,0.06673480849136032,-2.6161488479705696e-08,-3.037105161578787e-08,-0.026036102626704714,-0.02569932570660274,-0.011042648804445238,9.800000261287225
1727705984.8544118,4.375226670385639e-08,6.003422558006993e-07,0.9977506854318325,0.06703409371316893,-2.741603667152279e-07,-3.103287595807376e-09,0.00503040039361974,-0.2706277561412356,-0.7470361357176757,9.80000529757163
1727705984.8597116,4.345826116600817e-08,5.992593009756356e-07,0.9977751102545089,0.06666955344264375,-1.640902173231244e-08,3.625831805095181e-08,0.026663254338470464,-0.029339014417645314,-0.010947338222704795,9.800000390381761
1727705984.8885684,4.308199774507292e-08,5.98580369263784e-07,0.997804308694477,0.0662311222189107,-1.3645938851593755e-08,4.0455739838795e-08,0.029607977397541417,-0.016183709146606832,-0.0053171689428600484,9.800000223975047
1727705984.9669056,4.2578101628971086e-08,5.978482166400524e-07,0.9978433528050619,0.06564025641626864,-1.1721469349373924e-07,4.042031886891147e-08,0.02943600378077336,-0.010941106943050727,-0.29300487455308083,9.799998267222643
1727705984.99949,4.222814456078575e-08,5.976325440459176e-07,0.997872163144587,0.06520081303775066,-1.0139272391638736e-08,3.984520459299241e-08,0.02935009487996762,-0.01360678208847291,-0.0009033897225827578,9.80000003908171
1727705985.0332267,4.1660007481444093e-08,5.954662379150207e-07,0.9979194915004796,0.06447238543025569,-3.6886019237387495e-08,6.967555159756592e-08,0.05596592968889712,-0.07864970174754163,-0.09490934578279783,9.800003935814162
1727705985.251396,4.0654820596524116e-08,5.925176205026554e-07,0.9980015604564607,0.06318928173445693,-1.3101611802335827e-07,9.01313561945544e-08,0.07572709732986146,-0.15228005990756005,-0.3799189048333516,9.80000682846015
1727705985.2556922,3.9871552865872407e-08,5.924747685328529e-07,0.9980754342803315,0.06201151091349888,9.886348597338049e-10,9.963991606085131e-08,0.07902361326054315,-0.03705021433744625,-0.002190200058792052,9.800000048139024
1727705985.2794418,3.906566961454295e-08,5.926134739176218e-07,0.9981518290082592,0.060769451594649804,1.4793431911055285e-09,1.0483185299588988e-07,0.08342962996942352,-0.039853451235200794,-0.0006956989780217847,9.799999971472868
1727705985.5873504,3.8027540130284414e-08,5.89253359240719e-07,0.9982265285713414,0.05952980477088554,-6.850356265366359e-07,1.0451492237849666e-07,0.08136026175502761,-0.009323055968165376,-1.8990068861573355,9.799988715541076
1727705985.597643,3.695934567766838e-08,5.88785203246585e-07,0.9983180664110917,0.057974462281863925,8.782011032202934e-09,9.670576746383301e-08,0.0775590474537042,-0.03130621340979068,-0.001584982361697437,9.800000040987577
1727705985.6299517,3.621920486700356e-08,5.887637893797924e-07,0.9983789430455325,0.05691648340276567,4.296342270526462e-09,8.412644876193821e-08,0.06593880896115135,0.007045058289104559,-0.008994973016328178,9.800000588888967
1727705985.6631353,3.558428444909309e-08,5.889929248062029e-07,0.9984334223415834,0.05595266884541483,2.1879004852750782e-08,7.996794002955802e-08,0.06279391581286038,0.004632547641780418,0.03994967267791508,9.800000212626108
1727705985.737873,3.477644369482294e-08,5.892147839740516e-07,0.9985020474160884,0.05471436105384425,8.328806891401131e-09,7.725104388427498e-08,0.06193255103132336,-0.025432520549963367,-0.00043953815965860806,9.799999998269806
1727705985.7647488,3.4120336308821005e-08,5.891164053409688e-07,0.9985583584253914,0.053676855519292854,7.757670019615645e-09,8.675306486535797e-08,0.07014362634288474,-0.0352814180448965,-0.004021099504343363,9.800000113267101
1727705986.0004814,3.329363923576312e-08,5.864900434829483e-07,0.9986155871770508,0.05260141677454028,-5.497362921346404e-07,9.011411488821024e-08,0.07480730128200225,-0.09430628375972949,-1.556619974946628,9.799990816924963
1727705986.0072799,3.217236400563918e-08,5.856067918833565e-07,0.9987063979554498,0.05084811385396948,1.5535440307198234e-08,1.0883278361387135e-07,0.08907288461164195,-0.03771795106615945,-0.0031417916575098965,9.800000074948347
1727705986.020789,3.135040662156407e-08,5.858250920141278e-07,0.998769539322812,0.049592411925148905,1.4315224301203177e-08,9.950039990110806e-08,0.08018758627272873,-0.004704884070243369,-0.0009234768932405757,9.800000163933925
1727705986.0541987,3.062092833016706e-08,5.865083299946935e-07,0.9988277554448708,0.04840573264208087,9.9157313059124e-08,9.661892905344768e-08,0.07848043287116438,-0.01636146557348683,0.2338339951340831,9.800001378880035
1727705986.143588,2.9887925399874886e-08,5.868198161661111e-07,0.998883803347683,0.04723502312185274,1.4036289847386097e-08,9.556640952839612e-08,0.0780956265772163,-0.03029992429001255,-8.605838680377706e-05,9.79999996876953
1727705986.1808608,2.888686771943771e-08,5.859021388557194e-07,0.9989516000768819,0.045778823745190655,-1.1555094872321146e-08,8.549793781448072e-08,0.06949816385146654,-0.014858460406903527,-0.07359120101141248,9.800003357787807
1727705986.4076478,2.809850718739416e-08,5.831096653635806e-07,0.9989986420624313,0.044740509128497474,-5.911937033024121e-07,8.515522452942631e-08,0.06944049735517216,-0.03274033372330326,-1.6821808370379585,9.79999001466884
1727705986.4098923,2.743661935147119e-08,5.829637231911583e-07,0.9990447677336922,0.04369842175173694,1.9994979091355175e-08,8.418017376669733e-08,0.06955316434069514,-0.025522503233262432,-0.005338404030385777,9.8000002084835
1727705986.4489615,2.6574295741590284e-08,5.837598628895575e-07,0.9991075431420795,0.04223881196548718,2.140318905930311e-08,9.023311490546639e-08,0.0747666148569177,-0.0315020203913955,0.0019566059497411704,9.79999985174507
1727705986.715574,2.5861428427868092e-08,5.835278563749239e-07,0.9991537976067704,0.04113014378320956,-9.19192296811803e-08,8.926851811876452e-08,0.07220499655978505,0.009371251654964666,-0.30476492758744367,9.799998156083722
1727705986.7230766,2.5200386391022766e-08,5.837681454615821e-07,0.9991972200912282,0.040061394903573466,1.9971501149316048e-08,8.599423414275168e-08,0.07120205049460751,-0.025120500736239965,-0.0013997304268563507,9.800000035325079
1727705986.7640903,2.4330640661285768e-08,5.841956211748475e-07,0.999253240624582,0.03863885480871909,1.9487972872460966e-08,8.587570559923811e-08,0.07118015954746969,-0.025885425658586685,-0.0006491373359748348,9.799999996984722
1727705986.8033397,2.367865586633847e-08,5.845053789956393e-07,0.9992939257844186,0.03757192954883698,1.8910409421715076e-08,8.5837591336447e-08,0.07118003054078628,-0.025889943709174527,-0.000649471406659399,9.79999999707478
1727705986.8298876,2.3026884315962494e-08,5.848059688649312e-07,0.9993334717554972,0.03650496170059775,1.8350447457723743e-08,8.580043809657748e-08,0.07118002776418082,-0.02589004171065168,-0.0006494798505972926,9.799999997202269
1727705986.8901849,2.2309496916800527e-08,5.832333196268323e-07,0.999371469634007,0.03544948069046078,-2.5401591390493323e-08,8.416919055542538e-08,0.06988801226786967,-0.021197115479571385,-0.12896346554614657,9.800005798433752
1727705987.1420903,2.1339265675730683e-08,5.801784864156632e-07,0.9994197114997241,0.03406229976778763,-6.728421834881759e-07,8.365352358688314e-08,0.06821665965392196,-0.005532292875312866,-1.9204173182745636,9.79998855436082
1727705987.1454005,2.0387355877095126e-08,5.703113367260346e-07,0.9994525297459877,0.0330853560358631,-6.528367282508699e-07,7.651620333738184e-08,0.0636667395559236,-0.0011366556266637323,-1.9202639066161886,9.800002321817281
1727705987.1779113,1.95091878829651e-08,5.607360340631822e-07,0.9994822727497323,0.032174313647919894,-6.333971975872884e-07,6.99116189092956e-08,0.059344375771854946,0.0026927135194598343,-1.9201131766479396,9.80000228093012
1727705987.2164588,1.8443223449812337e-08,5.484084257284171e-07,0.9995176358444395,0.03105633004141306,-6.083711209665453e-07,6.187814950763773e-08,0.05392519063486136,0.006990671615786081,-1.919927458356097,9.800002228326289
1727705987.2919562,1.8330985780782218e-08,5.59038111621017e-07,0.9995413719148666,0.030282764573821452,7.010452978020989e-07,5.693128179258123e-08,0.05046271464572843,0.008848380488816114,1.732121829099028,9.799997922366222
1727705987.3253207,1.8219770037588966e-08,5.693511883978188e-07,0.9995630584020975,0.029558286105938636,6.801606984130796e-07,5.443174818720988e-08,0.04727844199837075,0.0056022384781361555,1.7318674266670822,9.799997891102642
1727705987.5533714,1.780691451916534e-08,5.747353204574298e-07,0.9995924649695324,0.028546523007252023,-6.615888158553212e-07,6.622634075422978e-08,0.05478620999654715,-0.0007608463622666234,-1.920368516387916,9.799981373673306
1727705987.5595217,1.718884862095796e-08,5.717348965028859e-07,0.9996195634071463,0.02758130623047106,2.4682188474191374e-08,7.778556272244515e-08,0.06793721655886979,-0.04343136053162776,-0.06021208835148602,9.800002516209846
1727705987.584702,1.6600214248985982e-08,5.723962749680043e-07,0.999647407897687,0.02655296373491217,4.3730446662559136e-08,7.991098727151335e-08,0.06865799125275407,-0.01776475603428645,-0.0008569530786550295,9.79999999943611
1727705987.8753846,1.6007569258689863e-08,5.730542819381368e-07,0.9996742291627834,0.025523235442753534,4.2492516522272045e-08,8.000591364714536e-08,0.06867348152522446,-0.017215112118334555,-0.0006197199365284817,9.799999992339378
1727705987.8808358,1.4893859815310841e-08,5.602416176589779e-07,0.9997064547250202,0.024228173286832966,-6.320718915191724e-07,7.300119869380308e-08,0.06248735333969242,0.0060028422318837045,-1.919897364828752,9.800002277986223
1727705987.8989422,1.4139555892541189e-08,5.509635719131721e-07,0.9997277026901727,0.023334962471064202,-6.132469891632349e-07,6.656426908551609e-08,0.05812899241801853,0.009261809949453295,-1.9197549706310697,9.8000022384148
1727705987.930068,1.3448458165992963e-08,5.41960573133296e-07,0.9997467360173152,0.02250475110794742,-5.949796443791875e-07,6.062745514382944e-08,0.054003984945877784,0.012019638739975446,-1.9196222051175291,9.800002200049432
1727705987.9714875,1.2715712335426086e-08,5.340540541040509e-07,0.9997641494509174,0.021717400221897165,-1.2583438325518712e-07,3.107548605551734e-08,0.016286930602809856,0.29126544808744415,-0.6380289499144384,9.800003848676814
1727705988.0146217,1.2680313884618078e-08,5.352619360287912e-07,0.9997648134554159,0.02168681111114673,1.1664566785595265e-07,4.226883970373267e-10,0.0003478268846347659,0.012676305893132497,-0.003726952286081819,9.800000219743364
1727705988.2419353,1.272476461427967e-08,5.370040291155315e-07,0.9997648276321385,0.021686157552501695,1.1511140402311754e-07,-5.16700191289038e-10,7.43359641432051e-06,0.0002709736260134012,3.4142573247876806e-05,9.799999977633117
1727705988.251064,1.2783906863041149e-08,5.392485990615334e-07,0.9997648279399131,0.021686143363573662,1.1057930954857428e-07,-5.161042263793187e-10,4.409379881547036e-08,1.6286688633979725e-06,1.082639754984525e-05,9.79999997795667
1727705988.2801995,1.2826755090993227e-08,5.408737959843686e-07,0.9997648279417093,0.021686143280713888,1.0729533736851978e-07,-5.012954648232037e-10,9.426205927140132e-10,5.592154105810259e-08,1.0636164199639702e-05,9.799999978612316
1727705988.3096793,1.2868332634441038e-08,5.424507163189171e-07,0.9997648279417468,0.02168614327894053,1.0410830598182108e-07,-4.863884387964382e-10,2.02919741480217e-11,2.2452836002998553e-08,1.066141461526915e-05,9.799999979275228
1727705988.415895,1.2908672810990082e-08,5.439807943314677e-07,0.999764827941747,0.021686143278900116,1.0101551306126954e-07,-4.717183673543332e-10,5.710997148957288e-13,2.1874335422764638e-08,1.0690538674389319e-05,9.799999979876658
1727705988.4508812,1.2960602972645437e-08,5.459504388404394e-07,0.9997648279417457,0.021686143278896286,9.703507601235738e-08,-4.531538528703707e-10,1.400597726318518e-13,2.202751126024299e-08,1.0728141523167695e-05,9.799999980671734
1727705988.6543238,1.299819740084595e-08,5.473765711417535e-07,0.9997648279417453,0.02168614327889412,9.415306129401127e-08,-4.3926014999214927e-10,1.3150881644887003e-13,2.2156847035387487e-08,1.0755380309763983e-05,9.799999981246813
1727705988.6587322,1.3245173253232731e-08,5.580314539170773e-07,0.9997648607777319,0.021684629435860525,7.0337614101758e-07,-9.340708732308188e-10,0.00015022141266601014,0.0006931153020960193,1.7308916124912077,9.7999979272029
1727705988.6860757,1.356102572396799e-08,5.717462248117492e-07,0.9997649764994845,0.021679293453848725,6.755863281833897e-07,-6.722479506289052e-10,0.0003347106966912573,0.0007303306519077477,1.730689462291113,9.799997885481513
1727705988.9625292,1.3591446428623085e-08,5.764965707225174e-07,0.9997727098001674,0.021319679605880215,1.7420327649851376e-07,3.574533503354219e-08,0.03920393916589524,-0.20201082922800953,0.35351542192551816,9.799997652612221
1727705988.965927,1.3468439034886775e-08,5.862925293598955e-07,0.9997845558493251,0.020756731072687995,6.462319129671505e-07,4.309204968759569e-08,0.036728544101249525,0.006560156714455404,1.7317848239079614,9.79999783976448
