timestamp,orientation_x,orientation_y,orientation_z,orientation_w,angular_velocity_x,angular_velocity_y,angular_velocity_z,linear_acceleration_x,linear_acceleration_y,linear_acceleration_z
1727705037.120801,6.257097015631498e-07,-1.4456720390228871e-09,-1.4274793733726199e-06,0.9999999999987854,-6.377713969099176e-08,6.603455965268787e-10,2.717052718733664e-14,2.814927481906358e-08,1.2247724254888123e-05,9.799948945136046
1727705037.1256359,6.24772054272947e-07,-1.43596211185325e-09,-1.4274793728175084e-06,0.999999999998786,-6.1882361569388e-08,6.408038601050337e-10,1.9326942600175862e-14,2.7975705819330292e-08,1.2229813588218498e-05,9.799950461523286
1727705037.1493757,6.235650390287991e-07,-1.423465641067825e-09,-1.4274793724844415e-06,0.9999999999987867,-5.944384597448483e-08,6.152900015153542e-10,2.439998026618213e-14,2.772606495086226e-08,1.2206795298569088e-05,9.799952413524519
1727705037.1805608,6.226910927888793e-07,-1.4144199142639638e-09,-1.4274793720958634e-06,0.9999999999987872,-5.767877375659837e-08,5.968146231925355e-10,2.629206918228839e-14,2.7549581198398923e-08,1.219012364864414e-05,9.799953826874118
1727705037.2120504,6.218430983046312e-07,-1.405640510663535e-09,-1.4274793718183076e-06,0.9999999999987879,-5.596600421478679e-08,5.79538505918116e-10,1.56689837902758e-14,2.739488025771423e-08,1.2173930118222326e-05,9.799955198275503
1727705037.2640502,6.207514908611608e-07,-1.3943398583451298e-09,-1.4274793713742184e-06,0.9999999999987885,-5.3760237466439933e-08,5.564445896285924e-10,2.2766681735090756e-14,2.7168959943190275e-08,1.2153085720493744e-05,9.799956963645279
1727705037.5123217,6.199611043877837e-07,-1.3861552081931444e-09,-1.4274793709301292e-06,0.999999999998789,-5.216368411240963e-08,5.40019191981248e-10,2.1597239045711624e-14,2.7014259576940854e-08,1.2138004421207596e-05,9.799958241865005
1727705037.5170994,6.191941993131987e-07,-1.378211218132476e-09,-1.427479370819107e-06,0.9999999999987894,-5.0614210481017795e-08,5.242799802898231e-10,1.82697660643402e-14,2.6864323255757957e-08,1.2123381719765665e-05,9.799959482114218
1727705037.5485165,6.184500800846921e-07,-1.3705012762798426e-09,-1.4274793704305289e-06,0.9999999999987899,-4.910961327935147e-08,5.08965124841718e-10,1.3080458286392884e-14,2.672415084987572e-08,1.2109143190350058e-05,9.799960685561352
1727705037.6028926,6.17492190565994e-07,-1.3605770523788058e-09,-1.4274793699864397e-06,0.9999999999987904,-4.717490750431454e-08,4.88795828668346e-10,1.596156835047879e-14,2.6529279930979112e-08,1.2090876817530436e-05,9.799962234693073
1727705037.6791637,6.167986327401553e-07,-1.3533945251553704e-09,-1.4274793697088839e-06,0.9999999999987907,-4.577328006940702e-08,4.740822366803494e-10,1.5136552432262276e-14,2.6393837105423056e-08,1.2077644273242054e-05,9.799963356368956
1727705037.7078567,6.161256798386751e-07,-1.3464247351188717e-09,-1.4274793695978616e-06,0.9999999999987913,-4.4413722873760715e-08,4.598464908715999e-10,2.059791919692628e-14,2.625209803606058e-08,1.2064804891628157e-05,9.799964444707534
1727705037.9286723,6.152593927617528e-07,-1.3374589390979917e-09,-1.4274793691537724e-06,0.9999999999987919,-4.266381349740218e-08,4.4132383404016744e-10,2.0187691924848417e-14,2.6083035907380472e-08,1.204827636443423e-05,9.799965845719113
1727705037.9301043,6.14632151934446e-07,-1.3309657806778479e-09,-1.4274793688207055e-06,0.9999999999987922,-4.139674137483301e-08,4.283550949555793e-10,1.9916240769057392e-14,2.5956028099112493e-08,1.203630066086079e-05,9.799966860140213
1727705037.9542007,6.140235359049942e-07,-1.3246661430630175e-09,-1.4274793685986609e-06,0.9999999999987925,-4.016726707137484e-08,4.157089836791261e-10,1.4154778362780221e-14,2.584494751543536e-08,1.2024665309734807e-05,9.799967844451297
1727705038.2576194,6.132400791909353e-07,-1.3165519695774888e-09,-1.4274793684321274e-06,0.9999999999987931,-3.8584223424838624e-08,3.995493614318591e-10,1.4912154295628505e-14,2.5686477684105e-08,1.2009713753406933e-05,9.799969111493859
1727705038.268555,6.126728151680118e-07,-1.3106789093420946e-09,-1.4274793679880382e-06,0.9999999999987934,-3.7438064266970685e-08,3.876711901342178e-10,1.2250718770555797e-14,2.5576788652330086e-08,1.199888070234387e-05,9.7999700289195
1727705038.2953844,6.121224024658752e-07,-1.304976288301206e-09,-1.4274793680990605e-06,0.9999999999987939,-3.63253939906534e-08,3.764502615284443e-10,9.805126349504728e-15,2.547060483387308e-08,1.1988364674342493e-05,9.799970919101069
1727705038.3264325,6.115883460302759e-07,-1.2994433113008435e-09,-1.4274793677659936e-06,0.9999999999987941,-3.5247004130732997e-08,3.6521251541107315e-10,9.512285375616149e-15,2.5367704470669743e-08,1.1978205333899172e-05,9.799971782806757
1727705038.3669498,6.109008724619671e-07,-1.2923222748654597e-09,-1.427479367543949e-06,0.9999999999987945,-3.3856823156433264e-08,3.50513385479481e-10,1.633717000010668e-14,2.5221497422875992e-08,1.1965056901065568e-05,9.799972894692957
1727705038.4165823,6.104031080970994e-07,-1.287166909806847e-09,-1.427479367155371e-06,0.9999999999987947,-3.285120946747777e-08,3.4031569360025393e-10,1.0870600826909468e-14,2.5126189378606575e-08,1.1955562996707561e-05,9.799973699738157
1727705038.691612,6.099201210323276e-07,-1.2821665541867024e-09,-1.4274793669888375e-06,0.999999999998795,-3.1875779886180804e-08,3.2991956488788814e-10,1.415600012327912e-14,2.5028594179692013e-08,1.1946338721760576e-05,9.799974480893528
1727705038.6931262,6.092983776079758e-07,-1.2757310786630974e-09,-1.427479366822304e-06,0.9999999999987954,-3.062037891439017e-08,3.1692158066259544e-10,1.0417701254730159e-14,2.490909950319459e-08,1.1934488242412682e-05,9.799975486419669
1727705038.7210274,6.088482015655423e-07,-1.2710710376072882e-09,-1.4274793666002594e-06,0.9999999999987956,-2.971082966071143e-08,3.0760354914043893e-10,7.865217748094353e-15,2.4824315462129677e-08,1.1925888467866818e-05,9.7999762145114
1727705038.7514272,6.084113930384487e-07,-1.2665490143766232e-09,-1.4274793665447483e-06,0.9999999999987961,-2.8828219032443134e-08,2.9857449120646947e-10,7.178222663780796e-15,2.4736198134941753e-08,1.1917542634996137e-05,9.799976920966147
1727705038.8697906,6.078490984301971e-07,-1.2607279041281985e-09,-1.4274793662116814e-06,0.9999999999987964,-2.7692005849192602e-08,2.8653400082636985e-10,1.452610432569629e-14,2.4616666760226457e-08,1.1906815440097557e-05,9.799977830371546
1727705038.903859,6.074452519759275e-07,-1.3286758839566855e-09,-0.0004153344923635838,0.9999999137484711,-2.663107829085005e-08,-4.889175823995048e-08,-0.054966587011351445,0.3802274129571916,0.052506390455689146,9.79997842267325
1727705039.1070118,6.070526209602652e-07,-2.0535636457429816e-09,-0.0020224086235965943,0.9999979549294042,-2.6002171913141035e-08,-1.4488602160766532e-07,-0.1325999937230844,0.35397009375896055,0.04570951434317078,9.799979070085065
1727705039.1071222,6.066920405651382e-07,-3.4775567258950635e-09,-0.004704229262545601,0.999988935052122,-2.0186055295732184e-08,-2.3013494772120216e-07,-0.19779297175930813,0.2313843964429872,0.037965766289257796,9.799979792378414
1727705039.1329327,6.062088013764873e-07,-5.942821949943402e-09,-0.008774475938556847,0.9999615035448295,-2.3272721259766006e-08,-2.484316091161395e-07,-0.20408371837884937,0.00219554048231456,-0.005622425267596375,9.799980551735693
1727705039.4393544,6.058491669962611e-07,-7.809807993923922e-09,-0.011836060592818665,0.9999299513812334,-2.2595957667381073e-08,-2.4836991040612364e-07,-0.2041204648687912,0.0008565565733235,-0.005817775758664404,9.799981130326719
1727705039.440836,6.054725732748091e-07,-9.866405515978488e-09,-0.015575413910727864,0.9998786958832271,-2.314089684565603e-08,-3.156128124246684e-07,-0.27139959018564047,0.3084705578658724,0.026369665915633392,9.799981650536857
1727705039.4645178,6.050352045973781e-07,-1.355405990053035e-08,-0.02207145437628749,0.9997563957791663,-5.878216729349575e-09,-4.1904883623656354e-07,-0.3536814942113774,0.23329695879898707,0.049064365147273366,9.799982661765338
1727705039.4925246,6.047090653426308e-07,-1.6829699671628245e-08,-0.0275022808998025,0.9996217407324344,-1.7302308232078925e-08,-4.4128882376294907e-07,-0.3636728837891894,0.016516072373059316,-0.01608435793771324,9.799982934879809
1727705039.5228283,6.042803375251829e-07,-2.0329836279967482e-08,-0.03361226878893436,0.9994349480513951,-2.1248743373615408e-08,-5.071199074792161e-07,-0.42944799522524735,0.31057428177790114,0.0006320456944581202,9.799983433906645
1727705039.582078,6.038742632226753e-07,-2.5821253112520487e-08,-0.04283506892436789,0.9990821572172528,-1.228573979668003e-08,-5.662542682640785e-07,-0.4672404651427559,0.026367422551199917,-0.02463009084478904,9.799984051565898
1727705039.8375068,6.034821145185151e-07,-3.0083397124645295e-08,-0.049848279369572646,0.9987568017508206,-1.288630690771076e-08,-5.681445696996493e-07,-0.46819507574257624,0.005664567452802595,-0.03045832852098622,9.799984595429068
1727705039.8407094,6.02941521665739e-07,-3.4522069540436834e-08,-0.057517804249811344,0.9983444807249227,-1.9809094583058027e-08,-6.33225662372289e-07,-0.5339632203232078,0.3124631611939088,-0.022932956141773705,9.799985046342963
1727705039.8451405,6.025717151551588e-07,-3.957074094828982e-08,-0.06613413043106653,0.9978107419705211,2.806992814126653e-08,-7.089038151123188e-07,-0.5928882504368498,0.2169208073657557,0.07845408245184217,9.799986292465555
1727705039.885194,6.019606178212295e-07,-4.683338929507289e-08,-0.07812437045505405,0.9969436206429312,-6.621426114453713e-09,-7.301863935325902e-07,-0.602381235802439,0.012136245014261998,-0.04977252376647466,9.799986087400027
1727705039.965282,6.014045459828974e-07,-5.230616319800965e-08,-0.0871318937023643,0.9961967843250024,-6.562202241534404e-09,-7.304537039216848e-07,-0.602596594716863,0.007464521503543845,-0.05078691845473839,9.799986511050955
1727705039.9982586,6.008017314263535e-07,-5.777275067383773e-08,-0.09613294776728881,0.9953685027934164,-6.408244216575788e-09,-7.302722993856234e-07,-0.6026095498967932,0.007183442962501199,-0.050831380174975585,9.799986913655575
1727705040.2118702,5.996357266724251e-07,-6.539846250622434e-08,-0.10921151753717973,0.9940185332461674,-1.8256979169406886e-08,-8.215497165430915e-07,-0.6902822584731738,0.31574426589810567,-0.06790747507248152,9.799987453703272
1727705040.218442,5.986848067886081e-07,-7.180636914611373e-08,-0.12014720387895272,0.9927560875661784,-4.8908766814560195e-09,-9.003593619749802e-07,-0.7553752094879429,0.3073161428475913,-0.05627355959374834,9.7999880642157
1727705040.249116,5.983177864662406e-07,-7.880027105721593e-08,-0.1316682147529673,0.9912938420183,7.100905242390659e-09,-9.406497788759097e-07,-0.7775834940172376,0.04260281482893109,-0.06801789937908116,9.79998791538577
1727705040.5393836,5.970478611478361e-07,-8.818122822528196e-08,-0.1470916737613629,0.9891228637078998,2.610281160025205e-09,-9.437228737527048e-07,-0.7789732341226553,0.012662056282094625,-0.08481194216912809,9.799988678008804
1727705040.5413218,5.956504283206954e-07,-9.533707331869797e-08,-0.15928796160078557,0.9872321638240433,-1.817322265144515e-08,-1.0085137746513956e-06,-0.8447143702394921,0.3203148564127601,-0.12378087190080393,9.799989068230957
1727705040.5655162,5.945048694515568e-07,-1.0313718266364005e-07,-0.1724092912319355,0.9850253988078366,7.063917006712615e-08,-1.0851194118035357e-06,-0.9059990593246815,0.2565157045542478,0.08576800938218218,9.799990879239532
1727705040.5941002,5.934486530984902e-07,-1.1140699636064553e-07,-0.18595840108296185,0.9825576181915764,1.3499929443796893e-08,-1.114444616960667e-06,-0.9202986944754905,0.03637581028374617,-0.1084117772749677,9.799989528971775
1727705040.6336374,5.91460923288232e-07,-1.224323745700307e-07,-0.20402593414832076,0.9789654836584079,1.0431623273697712e-08,-1.1166616760738565e-06,-0.9211936396455433,0.017115241423315462,-0.11872201999362354,9.799990117101423
1727705040.7110355,5.896832345043999e-07,-1.306405686273785e-07,-0.21764046481207544,0.9760290098537128,-1.974583103603042e-08,-1.128908222171377e-06,-0.9431258372073816,0.3250180573041114,-0.16529818728449783,9.799989907212558
1727705040.7423768,5.880407445279176e-07,-1.391879187292288e-07,-0.23168731187648106,0.9727903111745536,1.3877675641439045e-08,-1.1678372907806739e-06,-0.9642129072763149,0.04749035416609968,-0.12254762743773398,9.799990627596099
1727705041.0418575,5.915844193037069e-07,-1.5208920867315563e-07,-0.24995134113990108,0.9682583989111542,3.7358121770407815e-07,-1.1305304778156668e-06,-0.9127264850606382,-0.2505471669433814,0.8782101874252972,9.799989787312793
1727705041.0741103,-5.945657367049682e-07,1.6146862541422086e-07,0.26261199061150997,-0.9649015195276048,3.227003587778157e-07,-1.0689113718917945e-06,-0.8543257285960697,-0.20045250786127544,0.7974848258821281,9.799989371547923
1727705041.1033049,-5.925857396146708e-07,1.6915666845772498e-07,0.2747734619179641,-0.9615089935228048,-3.408021853195786e-08,-1.0419184965664494e-06,-0.8376425863928605,0.019677026449641543,-0.142816926819046,9.799991119304309
1727705041.2125564,-5.888667297126758e-07,1.7889002499478801e-07,0.290676846462131,-0.9568212847394502,-4.440679363154014e-08,-1.0229174245270253e-06,-0.8239545364573481,0.023313714498627052,-0.16860473438999027,9.79999196804192
1727705041.241589,-5.87889459038889e-07,1.866348328096541e-07,0.3023458370082526,-0.9531982977551935,3.0965285661400196e-07,-1.0050031024811864e-06,-0.8021192617646427,-0.1898343127070572,0.7892641509320177,9.799997400699791
1727705041.274925,-5.85672351886258e-07,1.9375225266126265e-07,0.3136181994318352,-0.9495491693349813,-3.83944090753386e-08,-9.784174884801209e-07,-0.7859413344155812,0.02360306403590459,-0.12913565657435572,9.799991932293109
1727705041.4686894,-5.865273039593121e-07,2.0174531394324595e-07,0.32446907124918384,-0.9458963060517296,3.531217102329122e-07,-9.391383635271683e-07,-0.7434295030824029,-0.20702612096081643,0.9464110889880755,9.799991266655518
1727705041.4915278,-5.859481332181084e-07,2.110995105660732e-07,0.33768811974359975,-0.9412580590803163,-2.8492211194594265e-08,-8.64598009797297e-07,-0.6861643009997734,0.01874894001611288,-0.03589329991547454,9.799992001799033
1727705041.5224268,-5.829480726374248e-07,2.1689347367561635e-07,0.34726589257592455,-0.9377667086504295,-5.8521806131107304e-08,-8.499768906716801e-07,-0.6765193440904546,0.04477349556225641,-0.11538003997399586,9.799993174302976
1727705041.784249,-5.801811931065289e-07,2.2255313711876955e-07,0.35621830981034464,-0.9344027588548073,-5.977527336119251e-09,-7.762419450773039e-07,-0.6024461810952191,-0.4021963009629709,-0.01562738186406911,9.799994277333024
1727705041.8001935,-5.780735856889495e-07,2.294286905910529e-07,0.36654278775335863,-0.9304011955847914,-4.184549025241978e-08,-6.801623671079762e-07,-0.5410948080437105,0.01036065673174745,-0.03316004523950194,9.799993192242955
1727705041.8317869,-5.754064266544837e-07,2.3382857212751457e-07,0.37399365486647645,-0.927431262207194,-5.6884601425622493e-08,-6.663070841495995e-07,-0.5315480832149664,0.026957384485562886,-0.0738724701321308,9.79999378953786
1727705041.8653743,-5.667060266338635e-07,2.356209282977168e-07,0.381234386459942,-0.9244784165031301,-7.075451662077415e-07,-6.414384312353742e-07,-0.5142464149462735,-0.031744399484426616,-1.9038436164567545,9.799996353701628
1727705041.9434733,-5.567338316727287e-07,2.3825670903073853e-07,0.3907787033566473,-0.9204846576681931,-2.1267904697481398e-07,-6.377606438403121e-07,-0.5323777723653021,0.21240066474443237,-0.5552620429425663,9.799996220264749
1727705041.9729488,-5.524322227726546e-07,2.4180195406153933e-07,0.3985176556385128,-0.9171606610316536,-1.6418268652446732e-07,-6.864298491352496e-07,-0.5763796799492406,0.23655505808857527,-0.44323914369818046,9.799994919931818
1727705042.1860075,-5.480799267225586e-07,2.4571375921547626e-07,0.406839877953849,-0.9134994875237403,-1.5852297937547126e-07,-7.371202927150014e-07,-0.6209836743776528,0.23154357238306122,-0.4533912959408656,9.79999512659196
1727705042.2009382,-5.43653507445572e-07,2.499819718268565e-07,0.4157408264666882,-0.9094831307992671,-1.506070541165977e-07,-7.879472987947228e-07,-0.666049707207155,0.2271450666906419,-0.4575572236123679,9.799995213803669
1727705042.2392528,-5.397384030240546e-07,2.570827259561466e-07,0.4280984464292118,-0.9037321064145822,5.029620211694349e-09,-8.170517427268946e-07,-0.6839699496033672,0.018659760921903964,-0.06862507512667293,9.799995013255565
1727705042.3200197,-5.371826371697893e-07,2.6265737263428717e-07,0.4373522793368584,-0.8992902666872898,6.425196842543093e-09,-8.181198247969032e-07,-0.6843751117103669,0.009791889737927337,-0.06556122524233007,9.799995067839353
1727705042.3523555,-5.345674951391341e-07,2.6820812000003446e-07,0.4465611284114275,-0.8947531271761807,6.215127690935565e-09,-8.183487569929869e-07,-0.6843994711010244,0.00926205024045213,-0.06556979647287964,9.799995215228211
1727705042.3958366,-5.308836834520055e-07,2.757179688876773e-07,0.45931518604427796,-0.8882733587521088,3.448194264985734e-08,-8.785999647758223e-07,-0.7422096227217004,0.2053262202971187,0.021959182012891192,9.799996175722741
1727705042.5883996,-5.335595356005215e-07,2.8468353867538215e-07,0.4691490551394273,-0.8831189976789181,6.412476984346548e-07,-8.881287589080903e-07,-0.7327243124943494,-0.09210669289836976,1.6825435328694447,9.799993304376082
1727705042.603582,-5.387177847428072e-07,2.950158744938124e-07,0.478634342514389,-0.8780143314123302,6.221007788348255e-07,-8.777804103541838e-07,-0.7108860013769658,-0.051212865470967005,1.690670068287017,9.799993400934493
1727705042.6581616,-5.41052783694841e-07,3.0629195809864147e-07,0.49071379765943296,-0.8713208185199469,3.228976048678271e-08,-8.525827622763438e-07,-0.6778056979067675,0.014004474464290378,0.12768489813760425,9.799991495849294
1727705042.9161365,-5.350945386223662e-07,3.1027443618375356e-07,0.4996383072871794,-0.8662341264870714,-3.0958937837897803e-07,-8.602837897216322e-07,-0.6945598916975809,0.2372045380388503,-0.8010068836527289,9.799996953765861
1727705042.9266744,-5.233099337470315e-07,3.108293947755396e-07,0.5084784628932779,-0.8610747080093102,-5.684545242292693e-07,-8.339930625450663e-07,-0.6788351241234075,0.04849199867827349,-1.5846067522747567,9.8000006302831
1727705042.9562187,-5.164359093611937e-07,3.140570578073057e-07,0.5174622609640334,-0.8557060292399634,-2.81261409229048e-07,-8.521321322480523e-07,-0.7071299832440905,0.18227549123323547,-0.8060448315131039,9.799997171219083
1727705042.9986799,-5.083701889908937e-07,3.1935931398417146e-07,0.5300143501125696,-0.847988672491791,-1.5792775719899536e-07,-9.024871882532005e-07,-0.758281462546302,0.2435310194387523,-0.49618750560542224,9.799997171542856
1727705043.0670693,-5.027726769834241e-07,3.2404651502106116e-07,0.5400096218548502,-0.8416588431804324,-1.4637582728701708e-07,-9.532655259177015e-07,-0.8040143396695304,0.2399766247035284,-0.4929241670610075,9.799997041367035
1727705043.0953743,-4.977343308448609e-07,3.294462990292204e-07,0.5502741001988477,-0.8349840804769826,9.672570420948414e-10,-9.759755052459583e-07,-0.8184254744531888,0.03380372861540425,-0.12996840835764467,9.799997518210775
1727705043.3220117,-4.977690094509517e-07,3.412638711698627e-07,0.563786286752796,-0.8259207122170564,6.431638737566074e-07,-9.719820292584853e-07,-0.8042442889991632,-0.08983251800397449,1.6562448255803555,9.799994519221233
1727705043.3245518,-5.014128821502416e-07,3.5264538046310467e-07,0.5735295934499328,-0.8191848420452974,6.239594326937973e-07,-9.63431227598219e-07,-0.7824706833914123,-0.04514110761979695,1.6651955463702193,9.799994580230148
1727705043.357278,-5.047207717387352e-07,3.638667343592371e-07,0.5829332574643125,-0.8125200411938517,6.052614360535222e-07,-9.543248069036549e-07,-0.761451741986818,-0.0027741569274554816,1.6735816884945147,9.79999463942253
1727705043.4480755,-5.069756209135691e-07,3.773505555813721e-07,0.5950461284942838,-0.8036915483962518,2.214568490458612e-07,-9.523687538731741e-07,-0.7515625297058356,0.26463539201574476,0.710276680631365,9.799989680588238
1727705043.47879,-5.02801281089989e-07,3.833624294434503e-07,0.6041458250158094,-0.796873780542168,-3.612513141271018e-08,-9.691715622932538e-07,-0.7581157370736564,0.1615003294848391,-0.014533296621364688,9.799996492542434
1727705043.50854,-5.005046275261939e-07,3.907549346205044e-07,0.6129681655615128,-0.7901076053347103,-2.1012886478829103e-08,-9.475017574358757e-07,-0.7358654894429068,0.12242284363750636,0.04318778875875893,9.799994571908899
1727705043.7200062,-4.977924789934559e-07,3.9771823449889895e-07,0.6216024159704616,-0.783332902704386,5.3950521530226e-07,-9.374706645770981e-07,-0.7279038954028874,0.09534403257894197,1.5944615858985154,9.80000697978942
1727705043.7304506,-4.984815055459891e-07,4.103764583797753e-07,0.6326374969189454,-0.7744480599057075,2.6462342352615466e-07,-9.09830924632519e-07,-0.6875101564407993,-0.03802328728786272,0.875851602776948,9.799994291861356
1727705043.7623003,-4.937616103662889e-07,4.1525423386412233e-07,0.6404491928737467,-0.7680005412413131,-9.328201949093898e-08,-8.809753307406655e-07,-0.6719093390192643,0.1737002632872107,-0.07344776765773373,9.799996867822445
1727705044.0290513,-4.85657134410317e-07,4.1710096407828056e-07,0.6480944797982024,-0.7615599419971404,-7.98090393532919e-07,-8.668560225164536e-07,-0.6627101932353007,0.16031500859343492,-2.0349347895941396,9.799986427569399
1727705044.045737,-4.683485256797678e-07,4.1339165642856415e-07,0.6579572796510327,-0.7530552557109088,-7.669176227022098e-07,-8.18364403542203e-07,-0.6440624377553866,0.09790356040990619,-2.029978980196827,9.800000284384103
1727705044.0768905,-4.5763737201679503e-07,4.119584619482125e-07,0.6649749701354627,-0.746865643267222,-4.56752449928805e-07,-7.651045521886264e-07,-0.6063734518789184,-0.153622749338668,-1.2476359887896642,9.800001752916627
1727705044.1072094,-4.4846066038474644e-07,4.1100420387115413e-07,0.6713207814240076,-0.7411669234577926,-6.988249376906279e-07,-6.84933150075831e-07,-0.5560534173536427,-0.004295008037256254,-1.91422338131217,9.799993161770514
1727705044.157174,-4.340034143155354e-07,4.066684107519081e-07,0.6792618917845528,-0.7338959615428584,-6.712213980204382e-07,-6.32566153616323e-07,-0.5275958142358917,-0.0529099109367133,-1.9073966157137179,9.80000022860574
1727705044.1818922,-4.257018464655678e-07,4.051584999309281e-07,0.6848262807578682,-0.7287063641707817,-2.1953745311830532e-07,-5.85545044914956e-07,-0.49430083793438834,-0.16646353611582215,-0.7110263852615147,9.800005086121049
1727705044.4066694,-4.2267857381656584e-07,4.081516698590283e-07,0.6899890128182153,-0.7238198409755008,9.0211798903763e-09,-5.45530953031296e-07,-0.44813026826130214,-0.5124142772385993,-0.12347040512153673,9.799998149989783
1727705044.41276,-4.2004450587352663e-07,4.105838841484008e-07,0.6941210275319142,-0.719858318794535,-1.88633008191236e-08,-4.271149845155902e-07,-0.3575635485474873,-0.2570423496667533,-0.1482536964359088,9.799998591946535
1727705044.4527774,-4.1746095318207153e-07,4.136358492006894e-07,0.6990757695671379,-0.7150475986979946,1.4351577010216524e-08,-3.985002243940144e-07,-0.34375535856900047,-0.0013855405193283097,-0.017109237315705194,9.799998110491579
1727705044.483996,-4.1556016859545185e-07,4.1589969714342557e-07,0.7027525263251747,-0.7114343868152836,1.391734141446569e-08,-3.98551925032998e-07,-0.3436552174995713,0.0022625956319946437,-0.01653546468449567,9.79999816353564
1727705044.5182118,-4.136404027811239e-07,4.181511235481106e-07,0.7064104750132073,-0.7078024023633069,1.3480925210245597e-08,-3.988783089958326e-07,-0.34365307661390443,0.002340594294942825,-0.016524244130122007,9.799998218633934
1727705044.5578961,-4.112305761658425e-07,4.209341706919357e-07,0.710673961500133,-0.7035215138468484,1.3588487958295078e-08,-3.233583375655097e-07,-0.275271048914111,-0.10372733561435983,-0.020781100991769427,9.799998311469611
1727705044.7395053,-4.096838622036001e-07,4.2270707369336807e-07,0.7134171798751932,-0.7007395575094786,8.639246512846583e-09,-2.9594220646687365e-07,-0.2356062935952418,-0.5169471678429672,-0.08726806012304661,9.799998321152247
1727705044.772519,-4.085866008789253e-07,4.240211320636273e-07,0.7152061250497486,-0.6989135845660581,1.4251313742359714e-08,-1.7952069340489168e-07,-0.14896743826812758,-0.2000659390292624,-0.019984321246935978,9.799998526908686
1727705044.8213298,-4.075936267121777e-07,4.252877117765245e-07,0.7172144272846692,-0.6968525420018045,9.811896552178643e-09,-1.6312256110452418e-07,-0.1433785438344884,-0.0008152488777650208,-0.003035959814246499,9.799998439877392
1727705045.089153,-4.09137685620171e-07,4.2858582273513697e-07,0.7186938292507491,-0.6953266712823144,6.675243735184871e-07,-1.6131180441506506e-07,-0.1383587801929977,-0.07054203179034274,1.8117640384390186,9.800009308396838
1727705045.090754,-4.1478868546165627e-07,4.360751220111935e-07,0.7200674445827175,-0.6939040821696847,6.141206648702758e-07,-1.5168064871583952e-07,-0.12866425436353504,-0.03752390592275447,1.7207820255146404,9.799996335748034
1727705045.1105118,-4.2027619135959005e-07,4.4333443463704716e-07,0.7213430544244991,-0.6925779362881558,5.958825512591806e-07,-1.435301105522607e-07,-0.11975802156050927,-0.027971005875911965,1.721661800108272,9.799996350848135
1727705045.1603982,-4.2734776838406007e-07,4.526671972834488e-07,0.7229055133719159,-0.6909469000842965,5.723931122263823e-07,-1.333516830991556e-07,-0.10898801312874523,-0.017014139696881765,1.7226459185582463,9.799996370376617
1727705045.2140489,-4.302661977406132e-07,4.570711832492377e-07,0.7239346893606644,-0.6898685132254438,3.678647221904828e-08,-1.166787391177106e-07,-0.09320091002477648,-0.05158290172749402,0.27685468574276284,9.799990460642869
1727705045.258295,-4.3048497445515275e-07,4.584188592735371e-07,0.7247743358970101,-0.688986329345258,-1.6502440143276297e-08,-9.154025270190851e-08,-0.07388662773999397,-0.038400253188197314,0.1395617655192138,9.7999924249866
1727705045.4767585,-4.3111130381536383e-07,4.602961972210132e-07,0.7257666156373418,-0.6879410001053295,5.561911340832813e-07,-8.642742123437608e-08,-0.07069757825498378,-0.005821807876403228,1.7259074759043527,9.800008898772846
1727705045.4803524,-4.362959659228016e-07,4.666535305300678e-07,0.7264630263899403,-0.687205552428064,5.396663254874285e-07,-8.17483717122311e-08,-0.06597919545660531,-0.0015791418801319762,1.7261672347048624,9.799996484020266
1727705045.5103972,-4.398326197418697e-07,4.711094304276278e-07,0.7269606196755262,-0.6866791517445098,5.283458801962434e-07,-5.055524624393183e-08,-0.041724467945425614,0.001092389455179493,1.7277631578986439,9.800003868515198
1727705045.5496588,-4.3903345941728896e-07,4.7083205284376596e-07,0.7274413402613679,-0.6861698743593531,-9.98245843762136e-08,-4.003637921414566e-08,-0.034352121965772225,0.010574517044884584,0.0013105599345962014,9.799998823448716
1727705045.581332,-4.378270790200585e-07,4.699431840482762e-07,0.7277944168994619,-0.6857953679703296,-9.745824238283872e-08,-3.992702860976611e-08,-0.034308861830410736,0.012091982102631366,-0.00015586901313528978,9.799998931712398
1727705045.6106505,-4.38721504494281e-07,4.7129013619629607e-07,0.7281439176652138,-0.6854242738382844,5.103949430086613e-07,-3.995666648534661e-08,-0.03333709185253917,-0.0006936056423974821,1.675004223697664,9.800008735513742
1727705045.8545053,-4.378513609892006e-07,4.707460315636687e-07,0.7284833624123725,-0.6850634939098349,-9.69577549635889e-08,-3.85232426915266e-08,-0.03298773032030869,0.012037407529643425,0.0045117802251129985,9.799998783897339
1727705045.8961968,-4.4405701705077237e-07,4.778557276175853e-07,0.7288814569054326,-0.6846399212571441,3.224903681118785e-07,-3.090379490835165e-08,-0.021728140140695327,-0.11311155637767552,1.1904582399529031,9.799993639017178
1727705045.923126,-4.4386720187019694e-07,4.776812965231179e-07,0.7288756306743484,-0.6846461239272781,-1.0414949796738072e-07,1.060012036856102e-08,0.005805094321058555,-0.040623057952142064,0.02980733765146478,9.799997490086152
1727705046.194631,-4.4279576274762484e-07,4.763418810325792e-07,0.7288062891088444,-0.6847199376058598,-1.1347125179136729e-07,1.3772353307001708e-08,0.006864529956008932,-0.003871351374282868,-1.4043098078631297e-05,9.799999092611676
1727705046.1966069,-4.450893000549906e-07,4.783999853653943e-07,0.7285797136892578,-0.6849610213727874,-1.1076188863027403e-07,3.2907314700986917e-08,0.021640253200440017,-0.02355901093738456,0.022299942819799776,9.799998043273181
1727705046.2206018,-4.446102567825394e-07,4.774520106078359e-07,0.728333309466357,-0.6852230223229209,-9.902338002052562e-08,3.790398585433451e-08,0.025386700677036862,-0.022280521833274343,0.04919517964934639,9.799996872859136
1727705046.2601364,-4.436742564548598e-07,4.759791176522923e-07,0.7280697104808403,-0.6855030974984153,-1.1398582670632973e-07,3.8578749429438644e-08,0.025671093612921757,-0.012499650761909899,4.426651858041093e-05,9.799999179116455
1727705046.345063,-4.4319281144574206e-07,4.748726469786142e-07,0.7277523577471336,-0.6858400001407514,-1.1122069311083148e-07,3.464238917498803e-08,0.022889020200892857,-0.010497728861357617,0.0015366094665016786,9.799999149960454
1727705046.3819048,-4.4310535199934257e-07,4.7435279700331586e-07,0.7275144310616531,-0.6860923790544666,1.3267242407408445e-07,3.460374229065303e-08,0.023619622178566415,-0.020843099049267393,0.6669212110341599,9.800003128608713
1727705046.6273904,-4.423379202680028e-07,4.731004751863215e-07,0.7272687651427758,-0.68635278337549,-1.07291546586525e-07,3.5590079659233936e-08,0.02389567253081826,-0.011974733218897013,0.0017858823506738909,9.799999179850781
1727705046.6306906,-4.421944358511844e-07,4.7234107137600113e-07,0.7268392671876428,-0.6868076001863342,-1.1010108999983371e-07,6.038889684180383e-08,0.04288964358097546,-0.029939176128242338,-0.011316251010981918,9.799999735212053
1727705046.6525004,-4.412427956649778e-07,4.703746551480343e-07,0.7262468085327811,-0.6874340499971862,-1.0229287477300662e-07,6.076013743473895e-08,0.04313374886210304,-0.021503196328107425,-0.00022849548378234215,9.79999931504485
1727705046.682082,-4.405644352863227e-07,4.6894324593237684e-07,0.7258018691127464,-0.6879038063508804,-9.92518540585478e-08,6.048165383419735e-08,0.04313519288640284,-0.0214533713841415,-0.00021709499523504363,9.799999335202353
1727705046.7226048,-4.4000796148388477e-07,4.6764723523566406e-07,0.7253573800648662,-0.688372479973612,-9.609650086867828e-08,6.01156346409599e-08,0.04305308949213897,-0.021377844254447297,0.001124349079527866,9.799999294878445
1727705046.7531884,-4.392558160445322e-07,4.6592325393985693e-07,0.7247732290074012,-0.6889874937281337,-9.005227391917727e-08,5.8081506161490165e-08,0.041613605957239654,-0.016512600769516037,0.00855485270835975,9.799999011161729
1727705046.9860814,-4.3865104491397264e-07,4.646119721028425e-07,0.7243441125567166,-0.6894386169950261,-9.025865456654368e-08,5.7465320114600303e-08,0.04149524958937011,-0.02060681936697409,-0.000162727649550404,9.799999397793103
1727705047.0170574,-4.3813406727418377e-07,4.6335739649021885e-07,0.7238675841979951,-0.6899389252295828,-8.74564636539611e-08,6.375585740289467e-08,0.04660674551247498,-0.027203546965451998,-0.00022666831727705288,9.799999391254934
1727705047.0771022,-4.3744861497147346e-07,4.616445462882323e-07,0.7232129773812842,-0.6906250714728606,-8.421680503668207e-08,6.561274713948175e-08,0.04830610021012284,-0.028797517912726986,-0.0009857815552459718,9.799999443033073
1727705047.3702085,-4.369721777310812e-07,4.6038513637117814e-07,0.7227111515763345,-0.6911501945212817,-8.16971020495524e-08,6.577046020997638e-08,0.04843726437676561,-0.024273071100826382,-0.00029441492841290743,9.799999456575422
1727705047.371986,-4.3654218024027597e-07,4.591313508976563e-07,0.7221542092020442,-0.69173209997178,-7.923221968876085e-08,7.300658140541788e-08,0.05432619393316521,-0.03164965076390601,-0.0010346440646524127,9.799999475444697
1727705047.382176,-4.3615574758361114e-07,4.5788572907642783e-07,0.7215856021868122,-0.6923252261158014,-7.686243392803545e-08,7.362225562204338e-08,0.05483056471046483,-0.02774468167866127,-0.0004224372309509648,9.799999488681546
1727705047.4237916,-4.356752846763619e-07,4.5626512302723877e-07,0.720825817331033,-0.6931162536462769,-7.383185537308091e-08,7.332208987102005e-08,0.05484162303595257,-0.02736322913533296,-0.00036472433048807384,9.799999508625856
1727705047.4982357,-4.353371665529989e-07,4.5508168580862487e-07,0.7202601034856548,-0.6937041035819501,-7.163795414674208e-08,7.220401062972066e-08,0.0540805807634113,-0.02474412729523646,-2.111733621821285e-05,9.799999521943468
1727705047.5284214,-4.3501408490626794e-07,4.5392777017002206e-07,0.7196977099414761,-0.6942875530387966,-6.95162061211256e-08,7.177648915337484e-08,0.0540180074487527,-0.02690257263002569,-0.00034561226176742547,9.799999537347007
1727705047.7664328,-4.346318430620049e-07,4.5240863163284544e-07,0.7189077253745627,-0.6951055188936273,-6.675188322012797e-08,7.548914345849384e-08,0.05714056509661916,-0.029165744078505782,-0.0004966647425688896,9.799999556102916
1727705047.768237,-4.3446323416250827e-07,4.5120160221864557e-07,0.718103414748841,-0.6959364092542228,-6.458311553022355e-08,1.0315795592464307e-07,0.07867387752672639,-0.039586201090156634,-0.0008786169365508247,9.799999579280435
1727705047.7790954,-4.3437918492187663e-07,4.4995722536781535e-07,0.7172815372721901,-0.6967834644192213,-6.264888320990887e-08,1.0290228174045683e-07,0.07868429832313849,-0.03922686160458143,-0.0007782032777886268,9.799999582209692
1727705047.823193,-4.3429196453665497e-07,4.4833295533551517e-07,0.7161841281818463,-0.697911380147952,-6.018180311595688e-08,1.0253207673279531e-07,0.07868452680443871,-0.03921898127575949,-0.000776898383502643,9.799999598715281
1727705047.8511646,-4.3424586059062356e-07,4.47138644748781e-07,0.7153550156580798,-0.6987611906598991,-5.839528303584848e-08,1.0315678133058328e-07,0.07947007738843054,-0.04191904999926139,-0.0011368126812003302,9.799999611974306
1727705047.8913383,-4.342192437416835e-07,4.4596099215151805e-07,0.7145209428833225,-0.6996140523036541,-5.6655217685474634e-08,1.0309387105509377e-07,0.07953466161676444,-0.03969117260407125,-0.0008019107187333861,9.799999622277635
1727705047.911648,-4.2698792869323235e-07,4.3745152146571735e-07,0.7137210769466097,-0.7004300281411397,-7.350077264999783e-07,9.699863128929867e-08,0.07452155466978583,-0.014973392602577252,-1.9207869244459257,9.800002116226308
1727705048.1609282,-4.313256825643725e-07,4.4051885838742315e-07,0.7127302156250278,-0.7014382650916052,5.853060634124428e-07,8.752200489646088e-08,0.06849978565955227,-0.009344464689301642,1.731393892572337,9.799997384600326
1727705048.1979523,-4.344115543378611e-07,4.426147610695805e-07,0.7118787592198683,-0.7023023794429263,-5.359321781625966e-09,1.1134153378243221e-07,0.08944573249036172,-0.11492430152612707,0.11709933007183022,9.799995466815574
1727705048.2277477,-4.2725753197610845e-07,4.3411892631121695e-07,0.7109755908572694,-0.7032166872343016,-7.3057426227073e-07,1.082183542072741e-07,0.08382358626619689,-0.0166485377927038,-1.9207418622412153,9.800002142996336
1727705048.4609263,-4.3174423926024325e-07,4.371550855534925e-07,0.7098565610665134,-0.7043462662004008,5.895637909120263e-07,9.778005344878947e-08,0.07703899676690396,-0.01053527830365942,1.7314614894710325,9.799997425729575
1727705048.4863083,-4.3487449704862095e-07,4.39210752246705e-07,0.7089858351545875,-0.7052227205286072,-1.756774568585082e-08,1.0950420095908337e-07,0.08707313790289657,-0.07712112176543073,0.07730939051841496,9.799995952319936
1727705048.518709,-4.350073129854619e-07,4.3811711234818916e-07,0.7080551251560236,-0.7061571636257089,-4.637682026815086e-08,1.122785156775784e-07,0.08802582066344125,-0.04445127962474978,-0.000857379050823034,9.799999690921066
1727705048.588945,-4.353379484710968e-07,4.368503996929425e-07,0.7068590850075447,-0.7073543906288533,-4.429639104156955e-08,1.0576620151426902e-07,0.08292762442204742,-0.03735329597063209,0.0020996452800967286,9.799999603209516
1727705048.6208365,-4.354684929623391e-07,4.3582800187819646e-07,0.706013053504641,-0.7081988197396781,-3.680745964426985e-08,9.977883147510875e-08,0.07339764582667141,0.09071996591987246,0.03692527752788282,9.799999825356677
1727705048.6532164,-4.3550709070230286e-07,4.348792113030209e-07,0.7052667339283151,-0.7089420526486692,-4.26944071768553e-08,8.864934610450261e-08,0.06983914129923723,-0.03207561288827364,-0.0001412880386741813,9.799999725194498
1727705048.8694727,-4.355297000378386e-07,4.3396218845349027e-07,0.7045638549149412,-0.7096405951938061,-4.148996838794773e-08,8.126138449205918e-08,0.06352309933327488,-0.01327582293159437,0.0021181509039914417,9.799999732301574
1727705048.8825502,-4.3552247941685564e-07,4.32818475634086e-07,0.7036864760753606,-0.7105106215872243,-3.987621781457848e-08,7.770888626037876e-08,0.06160744770309833,-0.03032238414760372,-0.00040530182863512,9.799999747300289
1727705048.914354,-4.355248053586316e-07,4.319812285073554e-07,0.7030296924543891,-0.7111604963207044,-3.869281321454759e-08,7.754093309109608e-08,0.06159611757202646,-0.03071321907006408,-0.00046492226867574565,9.799999755090065
1727705048.948235,-4.355420593849806e-07,4.31154329841148e-07,0.7023584173957885,-0.7118234707516378,-3.751702839026726e-08,7.985741423376483e-08,0.06378826368587201,-0.0382590514184585,-0.0013743912748495958,9.799999762218045
1727705048.9879107,-4.3559659251251315e-07,4.3005430589821985e-07,0.7014473522122051,-0.7127212723597576,-3.6050355003869113e-08,8.024712935343214e-08,0.06397137384356355,-0.031942819583449154,-0.0005106291600980233,9.799999771834866
1727705049.0237086,-4.356476196725412e-07,4.2924562269854295e-07,0.7007684718328434,-0.7133887782161191,-3.498113572028686e-08,7.943807092295943e-08,0.06341190395175005,-0.031194035697658405,-0.0004284005908204699,9.799999778216996
1727705049.254932,-4.3539959338055316e-07,4.2827094393684056e-07,0.7004159257131791,-0.7137349164829877,-6.830285110696245e-08,2.3502780576735534e-08,0.0026915319617658233,0.4040176122624259,-0.038142248349575206,9.799999833908187
1727705049.3156457,-4.3502773579211555e-07,4.2821228352939476e-07,0.7007328560352601,-0.7134237622004854,-3.277758542293371e-08,-3.109134052521772e-08,-0.022653024242552718,-0.020537045267879736,-0.00426497183575056,9.799999770352576
1727705049.3483558,-4.3452246922730114e-07,4.280367204525687e-07,0.7009667156031455,-0.7131939873668082,-3.1923867361178266e-08,-2.827937063833447e-08,-0.02176182083942054,0.010202468723736162,-0.00016047061903122915,9.79999979966418
1727705049.5782309,-4.338568148887516e-07,4.277737226546571e-07,0.7013421681508504,-0.7128247773282667,-6.866421888338095e-08,-5.318583322527245e-08,-0.04324805775709237,0.061165714934362764,-0.0991723011913295,9.799999167400875
1727705049.5905304,-4.332078899602178e-07,4.2774979876029366e-07,0.7018149908880885,-0.7123592622858085,-2.9708103957601664e-08,-5.647830715444636e-08,-0.044352664186566484,0.02301266730582527,-0.0004330188497112598,9.799999823977322
1727705049.629926,-4.323835457130603e-07,4.2776409674858776e-07,0.7024469286973928,-0.7117361255150885,-2.8442088995915736e-08,-5.640208748466781e-08,-0.04437686641195486,0.02217764465856216,-0.0002660666196638654,9.799999818688972
1727705049.661406,-4.318642872240336e-07,4.278686261202816e-07,0.7029369297707164,-0.7112521864740727,-3.263313305440491e-09,-5.889879199540027e-08,-0.04898462438158481,0.0867159448332841,0.07597795403073278,9.800000217315032
1727705049.752238,-4.3124104055157573e-07,4.2794554765426695e-07,0.7034759204974265,-0.7107190930880705,-2.698206205734977e-08,-6.410772093232093e-08,-0.05072474141848925,0.026733617381153756,3.8104417321195294e-05,9.799999820245572
1727705049.7934902,-4.302983076781081e-07,4.2798739961650366e-07,0.7042399470820689,-0.7099620390791865,-2.5813972033732855e-08,-6.818695391567547e-08,-0.05408229765629745,0.027749085773882038,-0.00044811568950294743,9.799999842853376
1727705050.009873,-4.2898714165251965e-07,4.2750061911114677e-07,0.7049522937557248,-0.7092547240083603,-4.562811720156779e-08,-9.177888310625542e-08,-0.07568715381916595,0.10101366993556991,-0.053471520620686844,9.800002606608667
1727705050.0271363,-4.279296071146534e-07,4.2750552157659947e-07,0.7057844113651318,-0.7084266826380896,-3.147147462671494e-08,-9.881164377277419e-08,-0.07912517631240346,0.045294803844672334,-0.027021892647087386,9.800001064220265
1727705050.0643413,-4.2690279908260756e-07,4.2792855249944587e-07,0.706906894817679,-0.7073066110668424,-2.075916580749315e-08,-9.915208903631076e-08,-0.07930234515673493,0.03914286636244651,-0.0008585141570941053,9.799999852390929
1727705050.326714,-4.262311756782508e-07,4.2836395608383515e-07,0.707791420226528,-0.7064214786183594,-7.421752222743012e-08,-1.0664549054066178e-07,-0.0862750033104402,0.06417941994433635,-0.1456577964454478,9.799997351492692
1727705050.333837,-4.2539806372445685e-07,4.287121842163982e-07,0.7087106695836902,-0.705499246504114,-1.986676445588356e-08,-1.0830845496939083e-07,-0.08687190789657002,0.04335844015937563,-0.001368828550199727,9.799999879278843
1727705050.3650007,-4.246010489828217e-07,4.290972823131035e-07,0.7096295101170632,-0.704575019689637,-1.914437828689929e-08,-1.0819670516312916e-07,-0.08688476382605662,0.04291403908694097,-0.0010231625580950743,9.799999865091609
1727705050.40477,-4.236710944752386e-07,4.2975601579222044e-07,0.7108834914479029,-0.7033097906232183,-1.4093887956386233e-08,-1.1341492272919492e-07,-0.091785738015233,0.059838467483254554,0.01371869816088138,9.799999289174837
1727705050.4360201,-4.228532234957407e-07,4.301835698153401e-07,0.7118549198571531,-0.7023265430515937,-1.8208321224767968e-08,-1.1449721873944387e-07,-0.09218895772464673,0.04594140380900765,-0.0010698106193374867,9.799999872739427
1727705050.4750738,-4.2181181200855307e-07,4.3037253317404344e-07,0.712805027479239,-0.7013622407857141,-2.5353697410858426e-08,-1.1071457495840937e-07,-0.08891790465123121,0.03420842247708795,-0.025250307060520536,9.800000908824947
1727705050.7322512,-4.186865504133898e-07,4.287429777161902e-07,0.7139023023935828,-0.7002453160405875,-1.9022159605426086e-07,-8.43870434117465e-08,-0.06071508354073972,-0.1647593057879766,-0.5216511417522031,9.800005543917026
1727705050.7375765,-4.178121149907565e-07,4.286667669089589e-07,0.7145424658152579,-0.6995920700996349,-1.0848311470445618e-08,-7.465858878029397e-08,-0.06100512140537811,0.02905794345206513,-0.005451279946413115,9.800000108648087
1727705050.7545378,-4.17310333627164e-07,4.289714087805074e-07,0.7151824031466472,-0.6989378586319591,-8.776290117320218e-09,-7.461278679381777e-08,-0.06101110366783946,0.028846417176948143,-0.0005192915896442678,9.79999988843418
1727705050.815925,-4.118347712143216e-07,4.244330890214495e-07,0.716021902899389,-0.6980778141210248,-6.952489140972607e-07,-7.116236759912418e-08,-0.058567154093526086,0.009721252846097957,-1.925879368097516,9.800002306627494
1727705050.8802452,-4.043347645498495e-07,4.1747197492726333e-07,0.7166101656485456,-0.6974739210098296,-6.745325665485424e-07,-6.540501939702454e-08,-0.05504024680500932,0.005559597340363378,-1.9254984417223688,9.800002266470182
1727705050.9089937,-3.9708443232613033e-07,4.1069223569377725e-07,0.717162198691602,-0.6969062926731978,-6.544308318428408e-07,-6.006053034441692e-08,-0.051677645193857535,0.0018571875671737701,-1.9251294332309135,9.800002227015076
1727705051.1207051,-3.946582647633609e-07,4.088219021510099e-07,0.7176794786793943,-0.6963735821253918,6.826146694897615e-07,-5.6405461526031884e-08,-0.04838886031687182,-0.0014986199320623712,1.7274343146268687,9.800024047101854
1727705051.139777,-4.035266440833133e-07,4.187704884400475e-07,0.7183155986269726,-0.6957174000762348,6.556975004224845e-07,-5.278352221017036e-08,-0.0441361748519637,0.0020942204314078785,1.7275613366865583,9.79999776315186
1727705051.1694288,-4.0939384517635084e-07,4.253963246564844e-07,0.7187718528388122,-0.6952460165770907,4.76363624548946e-07,-5.2469020090638056e-08,-0.045888754999514676,0.06936862292514875,1.293503867097968,9.79999510640411
1727705051.4749067,-4.070139389316638e-07,4.235378728564442e-07,0.7192597928923352,-0.6947412110477756,-6.870820580676745e-07,-5.5259616080216035e-08,-0.046262906299500604,0.00558219697207295,-1.9249508357666782,9.799988304508181
1727705051.4816885,-4.050314013907544e-07,4.219671700219046e-07,0.7195415758496987,-0.6944493650536302,1.4977396600441962e-08,-1.8004187260650484e-08,-0.015324052781656917,-0.00587859113121174,-0.011716941156847842,9.800000364500345
1727705051.50711,-4.051296334397255e-07,4.2224958329636183e-07,0.7196981666609197,-0.6942870796036524,1.8079993929744065e-08,-1.7060738949514827e-08,-0.01499984474263355,0.005456353042768388,-8.845913464659895e-05,9.799999913132218
1727705051.5391572,-4.0502983534301934e-07,4.2232556233312916e-07,0.7198479407837859,-0.6941317901875699,-3.862372017713064e-08,-1.6062976667859653e-08,-0.013161594573157081,-0.020044729145044463,-0.159261941327537,9.799998990535325
1727705051.5792344,-4.051451503238336e-07,4.226436588919323e-07,0.7200217553697147,-0.6939514909516167,1.747630045659591e-08,-1.4040085201032834e-08,-0.012458330446338508,0.004568087783450579,-9.667166496248356e-05,9.799999920420984
1727705051.6140351,-4.05355810215725e-07,4.2301772930771294e-07,0.7201706055030704,-0.6937970156818185,2.06417403733992e-08,-1.7337071127180764e-08,-0.015562758448647103,0.015132167145642956,0.012216689089197687,9.79999942478679
1727705051.8812788,-4.045596104753176e-07,4.223767071057173e-07,0.7203502248136013,-0.6936105201124417,-2.363270054583629e-07,-2.0139793073231266e-08,-0.02023100797073282,0.06757985618511526,-0.6914355079124169,9.799995756435566
1727705051.8831353,-4.044100156611654e-07,4.224772390887293e-07,0.7205649996524951,-0.693387396247911,1.5420724377842923e-08,-2.342938550104828e-08,-0.020091629521243298,0.003391991157459803,-0.009770955557475236,9.800000337412826
1727705051.9067557,-4.044972484229972e-07,4.2289809410639706e-07,0.7208421274721868,-0.6930992910550616,1.80189509341416e-08,-2.3116354548407346e-08,-0.019977457079089888,0.007387638078178704,-5.527657957493215e-05,9.799999927354614
1727705051.918462,-4.0321111088225086e-07,4.2286683132340006e-07,0.7218807645969054,-0.6920174576588699,-2.0100848355026273e-07,-2.508600777643512e-09,0.004457475911711856,-0.17885472350694454,-0.6311043217243235,9.799996349789275
1727705051.9227881,-4.0303673506014723e-07,4.2259307875107727e-07,0.721830551986734,-0.6920698333392272,9.004850957781986e-09,4.7694798872995635e-09,0.0026325979046019888,0.01517354694535537,-0.02943280339598778,9.80000136664481
1727705051.9361105,-4.04418837055555e-07,4.2306362032787235e-07,0.7210503462069019,-0.6928826727769746,-2.2592655113537694e-08,-2.3175844077032023e-08,-0.020138985747774892,0.009616329285222144,-0.11083315136203438,9.799999268918814
1727705051.954317,-4.032639073490165e-07,4.227812594453819e-07,0.721807351162355,-0.6920940310446575,1.9934661681556925e-08,3.4047305434048227e-09,0.002187514183782611,-0.00042054095517826174,-2.6415770095878824e-05,9.799999948073523
1727705052.009175,-4.0338930229118533e-07,4.2284884526544514e-07,0.7217943495271468,-0.6921075906174861,-3.158530477412923e-08,8.516565562376177e-10,-0.002779726013514777,0.06854326107067296,-0.13119040806556712,9.799999105210023
1727705052.0250971,-4.0445401067085617e-07,4.233505068957604e-07,0.7212601809017258,-0.6926642414945835,1.730713322396832e-08,-2.3405547028897292e-08,-0.020199070859644157,0.00751437138057546,-0.0003534944678641936,9.79999994533557
1727705052.0394895,-4.0354422399863e-07,4.2304493720411654e-07,0.7218405346948179,-0.6920594211996233,1.9029601866224925e-08,-4.795327368380817e-09,-0.004647693995302646,0.0030777429216964185,-0.00017303265021235365,9.799999964884103
1727705052.0682192,-4.044037464779327e-07,4.236140779161024e-07,0.7215015677626175,-0.692412801525031,1.2437844676811626e-08,-1.6863431447375425e-08,-0.013977882326770764,-0.013323122830834163,-0.015451371146763097,9.800000516693768
1727705052.1004539,-4.029131563936837e-07,4.2242989431441624e-07,0.721884529385887,-0.6920135303828788,-8.324932832394575e-09,-4.109810578471184e-09,-0.003936708533590895,-0.0009458336306197877,-0.08063153554669186,9.800003567213283
1727705052.2630656,-4.036353929439481e-07,4.2297774966690613e-07,0.7216296196822601,-0.6922793453490395,-2.3125414593802838e-07,-1.3263762898439852e-08,-0.009893689585112825,-0.04594616584465398,-0.6940501896547967,9.799995856844516
1727705052.2656953,-4.036405171409892e-07,4.230867608458019e-07,0.7217196902648018,-0.6921854438542727,1.8259862388815157e-08,-9.440148043397301e-09,-0.008528838816522876,0.0020075968289919787,-0.0020805545140780745,9.800000024453196
1727705052.3074107,-4.038327186793763e-07,4.234144908466183e-07,0.7218373735827633,-0.6920627183274618,1.8215839907505588e-08,-9.380776192443779e-09,-0.008498900823670908,0.0030570523063453855,-2.390515793746226e-06,9.799999939736125
1727705052.4002454,-4.014368524651776e-07,4.20935731452405e-07,0.7219376711348481,-0.6919580904910742,-4.770177937620748e-07,-3.389171334605084e-09,-0.0037165103230624853,-0.0019273203663831664,-1.3785604756716767,9.799991751787598
1727705052.4034264,-4.0139988604132376e-07,4.209312047659474e-07,0.721975582017428,-0.6919185349231928,2.3845734198681545e-08,-3.702664510369685e-09,-0.003644425861924217,0.0011256200797372421,-0.0038582386831277505,9.800000125126907
1727705052.4225507,-4.0178222826140826e-07,4.213546963663211e-07,0.7219916816672938,-0.6919017355108268,2.913001891647182e-08,-4.5921862878853536e-11,-0.00012244429509309583,-0.010418309819897836,0.012322571013466331,9.79999933490938
1727705052.4752717,-4.0224326314546596e-07,4.218181285473677e-07,0.7219834954482175,-0.6919102776372338,5.903502616424527e-08,1.6812513904873725e-09,0.0019602164848127883,-0.025094192357379648,0.09603470832586108,9.800000547776136
1727705052.5534172,-4.025167604982863e-07,4.220599796075776e-07,0.7219568859708156,-0.6919380426013463,2.2162165233796128e-08,3.712183084842735e-09,0.002635669905121169,-0.001392648300249645,0.00021237616307436105,9.799999943872391
1727705052.5865848,-4.0142185649696663e-07,4.208673977299971e-07,0.7219282121166776,-0.6919679591929665,-3.6718858044167054e-07,4.308438367820957e-09,0.0029920645623783032,-0.006559188983980526,-1.0778799497869052,9.799993547922497
1727705052.8391564,-4.014900137371812e-07,4.2088557044309075e-07,0.7218958714099046,-0.6920016985824502,2.4113603608797985e-08,4.270615233993937e-09,0.003130926793819811,-0.0011048339657147702,-0.0030208790425875287,9.800000093716807
1727705052.84291,-4.000949804673934e-07,4.193886204630225e-07,0.7218894365906519,-0.6920084113206251,2.807006172555352e-08,7.878264820886339e-10,0.00020370201485858671,0.0005509388086951115,-0.0033808764768384937,9.800000114993312
1727705052.8702507,-4.006585169623608e-07,4.1994695781931234e-07,0.7218521177942512,-0.6920473394469612,3.686016978399736e-08,6.673672648698156e-09,0.00591983814526925,-0.018836188227790998,0.02261344069274976,9.799998838596851
1727705053.223737,-4.009916655880463e-07,4.202026125039533e-07,0.7217863097474988,-0.6921159751521058,2.694068219070335e-08,8.060153436291123e-09,0.006389066460822977,-0.00230658081923926,2.3692305063201604e-05,9.799999958092076
1727705053.2276793,-3.9902983094746094e-07,4.180572843449163e-07,0.7217332619766275,-0.6921712927854223,3.1063213640642726e-08,4.71451070473434e-09,0.003582884166481001,-0.0004360051128361704,-0.00461214193337899,9.800000172938715
1727705053.2548997,-3.9939053786316085e-07,4.183770673373139e-07,0.7216962104091484,-0.6922099247199072,3.1802321143751995e-08,4.652360288676143e-09,0.0035668252349738317,-0.0010008894292381125,-9.089436690020818e-07,9.799999962923572
1727705053.2833729,-3.997421194148648e-07,4.18687705934451e-07,0.7216591776960118,-0.6922485328599699,3.0862662894993536e-08,4.639405305565403e-09,0.0035664806720837176,-0.0010130574247835247,1.0436848537122827e-05,9.799999963460525
1727705053.3218715,-4.0019579040940366e-07,4.1908654856659003e-07,0.7216097981346615,-0.6923000066703142,2.9647401995399082e-08,4.6235930727011885e-09,0.0035664731504891104,-0.0010133233806906559,1.0445784016659261e-05,9.79999996491808
1727705053.392954,-3.957533870275386e-07,4.143914725258057e-07,0.7215740471670052,-0.6923372692948864,-6.576977869221193e-07,5.0745060224091025e-09,0.003319571801185447,-0.0007941513566926235,-1.921868789749531,9.800002305072313
1727705053.6339655,-3.890912075076445e-07,4.0738395788744843e-07,0.7215420321147236,-0.6923706347697293,-6.38101883977799e-07,4.548708998347953e-09,0.00296659056282344,-0.0006108296791264254,-1.9217065333247172,9.800002265186407
1727705053.6387157,-3.8262520563981105e-07,4.0058750914787526e-07,0.7215135406821468,-0.6924003253985408,-6.19086720913275e-07,4.066020173416038e-09,0.0026338887295522073,-0.00046947882915216696,-1.9215439167185835,9.800002225978512
1727705053.672566,-3.7429931633516285e-07,3.9184274894273116e-07,0.7214806788336937,-0.6924345673559191,-5.946106790236149e-07,3.48399715807497e-09,0.0022206954640486124,-0.0003399003019570384,-1.9213265008369436,9.800002175513818
1727705053.7021668,-3.6904333268301247e-07,3.8632077775610554e-07,0.7214643958409298,-0.692451532985231,-3.533001346851829e-07,2.288718400523651e-09,0.0005537136352318836,0.01954952324632762,-1.2987046665333712,9.800005888951802
1727705053.7842057,-3.7001824394419425e-07,3.8732769720123944e-07,0.7214636818444107,-0.6924522768965526,1.168155646051326e-07,2.5650549640056057e-10,1.1666455070160238e-05,0.0004236153546212311,-0.0035709013698701454,9.800000115881726
1727705053.8296642,-3.7161634070698293e-07,3.8898640584127754e-07,0.7214636664400267,-0.6924522929463259,1.1348799180329324e-07,2.1376583370522487e-10,6.906191587850304e-08,2.541058721544031e-06,9.499105043633519e-06,9.799999954286994
1727705054.0540707,-3.7277396927012195e-07,3.90187996392236e-07,0.7214636663501454,-0.6924522930399717,1.1011730945375727e-07,2.0724694153191378e-10,1.476288906459568e-09,7.811340402553809e-08,1.0608416125439408e-05,9.799999955568781
1727705054.0578187,-3.7389721404834534e-07,3.91353897230494e-07,0.7214636663482205,-0.692452293041976,1.068468241779784e-07,2.0133095266325983e-10,3.187584053270366e-11,2.5417232048820107e-08,1.063573454742949e-05,9.799999956902733
1727705054.0847669,-3.753431518763518e-07,3.9285473795828485e-07,0.7214636663481732,-0.6924522930420236,1.0263697679994654e-07,1.9375140791489724e-10,4.988279852722756e-13,2.4207280022894695e-08,1.0675352504568824e-05,9.799999958609435
1727705054.3552856,-3.763900888129466e-07,3.9394142608318597e-07,0.721463666348169,-0.6924522930420268,9.95878673593564e-08,1.8782851567597186e-10,3.1581173771580517e-13,2.4132064692590993e-08,1.070416750581068e-05,9.79999995982956
1727705054.358006,-3.772763380756263e-07,3.951263139735097e-07,0.7220321083704665,-0.6918595482334551,9.680607870140286e-08,-7.173476180705624e-08,-0.0814711677845174,0.3712367826614097,0.05048644576557012,9.799999903648112
1727705054.3862872,-3.7764966333714716e-07,3.967388465814447e-07,0.7234047097026769,-0.6904242362342775,9.379302355835326e-08,-1.566309074037843e-07,-0.15725403280666567,0.34567960812020765,0.04291023179783737,9.799999913154723
1727705054.4291012,-3.775962967539922e-07,3.9936088959509257e-07,0.7257665526817779,-0.6879410665224935,9.075912914254411e-08,-1.9048143175062482e-07,-0.17274628906394304,0.003963005136975424,-0.0036673341783514707,9.799999965619799
1727705054.458134,-3.7746873420796455e-07,4.013199036835375e-07,0.7275475355667878,-0.6860572742055798,8.804291225768955e-08,-1.9117957468862996e-07,-0.1728367865697157,0.0006653507783217878,-0.004161545767393467,9.799999969161478
1727705054.5024996,-3.773063105946832e-07,4.032519860467545e-07,0.7293237453005194,-0.6841687471234842,8.541607116826689e-08,-1.9161449774136925e-07,-0.17283872128837244,0.0005948500990484638,-0.004171661511983836,9.799999970249285
1727705054.7764456,-3.770377099587825e-07,4.057868966250416e-07,0.7316844006937102,-0.681643556252958,8.203460302052858e-08,-1.9216655280146696e-07,-0.1728387633030571,0.0005933195784942996,-0.004171848585929341,9.799999971617932
1727705054.7785358,-3.7696242171204936e-07,4.074768715235812e-07,0.7327448928806961,-0.6805034327297321,7.82572358038455e-08,-9.995124359908581e-08,-0.07013266432686201,-0.4674974652056581,-0.066892718095385,9.800000045340752
1727705054.801102,-3.7748257601966037e-07,4.085710038028353e-07,0.7329182006054326,-0.6803167727029706,7.637366000556697e-08,-8.36902728407047e-09,-0.002953156864265771,-0.10482311633912264,-0.014740588514390068,9.80000001012725
1727705054.841696,-3.784928823779548e-07,4.0966947182548144e-07,0.7329220363810326,-0.6803126403255852,7.35206083227418e-08,2.490211971165733e-10,-1.7517419324907982e-05,-0.0006384930067109141,-8.091043402300742e-05,9.799999970648777
1727705054.9094634,-3.792314147626906e-07,4.104587665011261e-07,0.7329220587804185,-0.6803126161940262,7.133850617758188e-08,2.887788568380961e-10,-3.7441889705299124e-07,-1.362249317107659e-05,9.00491914137473e-06,9.799999971190523
1727705054.930009,-3.7994807059052294e-07,4.1122457607911746e-07,0.7329220592591824,-0.680312615678238,6.922043673389236e-08,2.8150113738744684e-10,-8.00261911249667e-09,-2.6651476088034493e-07,1.0949084399132358e-05,9.799999972041736
1727705054.968441,-3.86945597644698e-07,4.1877060990358565e-07,0.7329212211922163,-0.6803135185528694,6.791829591274012e-07,-2.380738785831762e-10,0.0001222173115730427,0.0008208395730560096,1.73090918048842,9.799997876784463
1727705055.1885655,-3.892342517479653e-07,4.2125212058231324e-07,0.7330485144505927,-0.6801763561470292,-2.14930388851872e-07,-1.9701976472175048e-08,-0.028570977796378766,0.2713478324690514,-0.6668918677285265,9.800005360061649
1727705055.2043655,-3.8563745692790113e-07,4.1797030279219457e-07,0.7336901122598294,-0.6794842302598607,-6.48918898413034e-07,-7.952288780876865e-08,-0.06882295699989802,-0.018777667148018887,-1.9257493042853007,9.799992395327493
1727705055.2486093,-3.830473763033082e-07,4.1617385144790276e-07,0.7346833081921017,-0.678410227416708,-1.1853613375123232e-07,-1.1882257425476945e-07,-0.11494202811221015,0.25085940401251816,-0.4515739155753674,9.800001152960597
1727705055.5158248,-3.8168512884491296e-07,4.171057252710552e-07,0.736956060778037,-0.6759406515976076,-5.447454733029911e-08,-2.1490174424347112e-07,-0.19992590363031798,0.2625972100726092,-0.2813238297073089,9.799998088909492
1727705055.5420923,-3.801936359715406e-07,4.1816901837044846e-07,0.7392178463109492,-0.673466387947522,5.0195629685905535e-08,-2.572828228354337e-07,-0.22816380034299208,0.036209803619515805,-0.029397954995313384,9.80000118907918
1727705055.5715032,-3.7933503535546473e-07,4.201331100828425e-07,0.7415268876834961,-0.6709231512193534,5.8250274624323623e-08,-2.6033244368494533e-07,-0.22910490064326283,0.0017914455348949497,-0.00730845977475902,9.799999988550708
1727705055.6128497,-3.781525926087821e-07,4.227311328512275e-07,0.7445935763611404,-0.6675180941677947,5.5961044395396933e-08,-2.608770218951284e-07,-0.229125331551898,0.0010466256055971241,-0.007338887107644699,9.799999986360227
1727705055.6753628,-3.77238045322159e-07,4.246434239729806e-07,0.7469576698656297,-0.6648715961962777,5.26944312965679e-08,-2.719510491459391e-07,-0.25147874183707697,0.3142487556454767,0.029583981654728697,9.799999941722092
1727705055.7052808,-3.760157395585319e-07,4.2676377606035796e-07,0.7498957118071611,-0.6615560606727956,5.109493715211227e-08,-3.478208477479736e-07,-0.31726008984239756,0.30896577772174283,0.020095786703014096,9.79999995580011
1727705055.9228575,-3.7433850608918323e-07,4.292365507410326e-07,0.7534681227751608,-0.6574844393302026,4.958158148929053e-08,-4.2357615325467386e-07,-0.3830360745457958,0.3097422478638601,0.009392392430798565,9.799999968616227
1727705055.9490108,-3.7160632720128266e-07,4.331820498404352e-07,0.7588990765464025,-0.6512082551816213,5.446797953047978e-08,-4.811765171086813e-07,-0.4207528662619584,0.025564011951033694,-0.018251981801801456,9.799999922487979
1727705055.9756458,-3.693468648241502e-07,4.3614043364126744e-07,0.7630017660226052,-0.646396399313965,5.1671420749176423e-08,-4.83868228156686e-07,-0.42170799920218227,0.0048507436498420355,-0.024656448895992132,9.800000007544972
1727705056.0519166,-3.670458151247024e-07,4.3907071862231107e-07,0.7670758010147147,-0.6415564788054954,5.0094594933853185e-08,-4.845816236553042e-07,-0.421765433580164,0.0036035217560880504,-0.024884044965745387,9.800000009592738
1727705056.0952938,-3.639214852930152e-07,4.429319008369584e-07,0.7724602128814425,-0.6350631618310321,4.808298716504604e-08,-4.853466677077323e-07,-0.4217690273964655,0.003525636205445381,-0.024895946496361506,9.800000010405189
1727705056.131426,-3.614093920679829e-07,4.458966606246363e-07,0.7768718151024018,-0.6296587829127536,5.879640131281886e-08,-5.464421466362746e-07,-0.48596272308910854,0.2892521506199004,0.03531816790610747,9.800000295982125
1727705056.360953,-3.6259966713627986e-07,4.541795769130725e-07,0.7814454052295675,-0.623973620151733,6.910633587827053e-07,-5.618668374271756e-07,-0.4789522583753664,-0.09840415593278228,1.75618924852138,9.799997812109021
1727705056.3661323,-3.647697038046216e-07,4.658355957121439e-07,0.7870209881618532,-0.6169262226493457,3.474869179828537e-07,-5.153282927162988e-07,-0.4201131077035587,-0.280480129833015,0.8541318832209585,9.799997635089891
1727705056.4003723,-3.6390908837383477e-07,4.7058566538499043e-07,0.7904323238743337,-0.6125493787232719,2.1330388437637808e-07,-4.302335566354508e-07,-0.3449273579512551,-0.3113384485073884,0.5132670071387617,9.79999935011594
1727705056.658924,-3.659549405331907e-07,4.781354008720124e-07,0.7933090412414304,-0.6088191563052527,6.138195102478999e-07,-3.774307797217961e-07,-0.3081926307434577,-0.04242836604575085,1.6963808858507339,9.799997827077869
1727705056.670492,-3.6919800732184824e-07,4.870178016682665e-07,0.7960098709368251,-0.6052836404288203,5.955015280856801e-07,-3.6258398493878685e-07,-0.29083922459717587,-0.028171504781016862,1.6989094835572098,9.799997796996855
1727705056.7128935,-3.67732525666423e-07,4.909624186724888e-07,0.7993681319355682,-0.6008415678408607,-3.512005155441717e-08,-3.441770318654123e-07,-0.2766197073960377,0.05724454803946623,-0.00636150484368594,9.79999980047877
1727705056.740275,-3.6620132638301006e-07,4.932753534460395e-07,0.8018706919677923,-0.5974976095037674,2.5835880383905855e-07,-3.470013334570222e-07,-0.28230002736829335,0.14105464522003563,0.8156605691438056,9.8000048090527
1727705056.80013,-3.6385456849756533e-07,4.946133735763437e-07,0.8044117181825108,-0.5940722074380215,-3.7183531174239114e-08,-3.540919024750869e-07,-0.2845759691263621,0.06788321182526014,-0.008525575834335662,9.799999909109752
1727705056.8441625,-3.634378517005533e-07,4.997216659836638e-07,0.8074229502156731,-0.589973032828312,-3.368504462054142e-08,-3.046198384633562e-07,-0.24166509315063345,0.022073912118766487,0.02186360038904965,9.799998423313637
1727705057.08161,-3.6340508146954477e-07,5.035236541658797e-07,0.8094167272554466,-0.5872346733961613,2.4148965522093615e-07,-2.752563874284192e-07,-0.20839808087600606,-0.2168917410900286,0.7643388143530194,9.799995655988132
1727705057.0910454,-3.6288594566176085e-07,5.05853006841292e-07,0.8109010857470264,-0.585183244064546,-1.5852078887712777e-08,-2.0185445198574317e-07,-0.15653085952101053,-0.05372716046089971,0.09578271798065285,9.799996477970172
1727705057.1310391,-3.6066324732389516e-07,5.061257786582106e-07,0.8126998494949084,-0.5826825504771591,-5.494627937814895e-08,-1.9307732402999123e-07,-0.1537723741881108,0.04405291041549143,-0.003272632003012682,9.800000007464519
1727705057.2065911,-3.5885281357008107e-07,5.060840379867487e-07,0.8140168326393463,-0.5808412831225251,-5.994537505758163e-08,-1.8727492349289453e-07,-0.14897732074815764,0.028759673334308185,-0.024607972345519095,9.800000895730918
1727705057.2443123,-3.572543836818531e-07,5.062664582390394e-07,0.8153097337346472,-0.57902507551673,-5.1286024822594863e-08,-1.8579370583680126e-07,-0.14858458190609913,0.04257537058369626,-0.0031173571275847326,9.800000011093703
1727705057.2769473,-3.566522650442624e-07,5.077408754747273e-07,0.8164401506096425,-0.5774300654383344,5.032129742356936e-08,-1.5190580694871006e-07,-0.1150481703777189,-0.13515742533281733,0.2584373585437849,9.799997312944077
1727705057.4967096,-3.5099109965519185e-07,5.02117888744394e-07,0.8176984854437582,-0.5756467553131943,-7.382422849395182e-07,-1.3175364549548247e-07,-0.10593197242428096,-0.0023163981201929857,-1.929440910790457,9.800002506645031
1727705057.501863,-3.439834626356892e-07,4.937816376568303e-07,0.8185727643552445,-0.574402845967402,-7.162389313544887e-07,-1.2051522265154256e-07,-0.09911493685407773,-0.00858991123386654,-1.9287009656950314,9.800002460128834
1727705057.5387614,-3.372430783392332e-07,4.856512302092588e-07,0.8193885304872917,-0.5732385507845117,-6.948869212020426e-07,-1.1013078619104922e-07,-0.09264441308747627,-0.014039243296418143,-1.9280037391035199,9.80000241456287
1727705057.8096747,-3.2865029697004964e-07,4.7512634297805196e-07,0.8203908203499136,-0.5718032020592939,-6.673993814111284e-07,-9.751867480185145e-08,-0.08453960134834154,-0.020133867993467284,-1.927135247592317,9.800002355994415
1727705057.8146112,-3.2346718595678007e-07,4.688899331496425e-07,0.8210384701321027,-0.5708728672505041,-3.016253030252189e-07,-8.176267975678962e-08,-0.0634045168331678,-0.2402122404162442,-0.9971250995140899,9.800008062891331
1727705057.8405168,-3.219901229902985e-07,4.673720437814514e-07,0.821227818952616,-0.5706004463527934,-6.469401700986699e-08,-1.3006984465330136e-08,-0.005371266357536046,-0.19581998938866046,-0.3516741064695628,9.80000236472405
1727705057.88118,-3.24330641442794e-07,4.7070977337976297e-07,0.8212337817983391,-0.5705918643241165,6.762606051682038e-07,1.4333702166041942e-09,-7.039081725148007e-05,0.0007548275346028282,1.730997449879249,9.800010327751776
1727705057.9273963,-3.300219637876019e-07,4.788618449314962e-07,0.8212336532041062,-0.5705920494054395,6.561429870434228e-07,1.5361799493976818e-09,5.671533747208052e-05,0.0007995418790908686,1.7308535920623693,9.799997851804383
1727705057.9587576,-3.3554468153987777e-07,4.867704612334242e-07,0.8212324870064487,-0.5705937278702365,6.365989421953746e-07,1.6355129679167966e-09,0.00017510451512126502,0.0008274305463066895,1.7307011302180824,9.799997822615559
1727705058.199634,-3.3826111434191806e-07,4.906894482326941e-07,0.8213891395038881,-0.5703681981884217,3.30421847482996e-08,-2.9539396607272236e-08,-0.040494739552112455,0.3642592586997075,0.15053273896051983,9.799994757760363
1727705058.212482,-3.36958120500674e-07,4.902083484474586e-07,0.8223402498644141,-0.5689960575017887,-7.020736968837925e-07,-1.150612344687495e-07,-0.09574387008399379,-0.014413771806913143,-1.9282763030297039,9.799985190332322
1727705058.2428374,-3.304212796978216e-07,4.821822365781496e-07,0.8231203391990036,-0.5678669801956928,-6.811761316179048e-07,-1.0506896046180366e-07,-0.08940159462858158,-0.019263467480289818,-1.9276044261214,9.800002386610135
1727705058.3324418,-3.2680798790825247e-07,4.783490637171924e-07,0.8240336936734045,-0.5665407943746241,-1.7459869634838894e-07,-1.3227298115089333e-07,-0.12581070693393948,0.2781855787145281,-0.5262539551232119,9.800002058150945
1727705058.3716595,-3.2117093670790447e-07,4.726191407181739e-07,0.8255165782784052,-0.5643778689736044,-1.3429852991853546e-07,-1.5936594538421397e-07,-0.14984769387050353,0.236376041002167,-0.4659553588102412,9.80000200880676
1727705058.4035223,-3.1988076864248e-07,4.7328841495743966e-07,0.8271195705419858,-0.5620259923047283,-1.5522763278308583e-08,-2.2432084609217758e-07,-0.2022643023132269,0.132770840816483,-0.15914848952077199,9.800001146462607
1727705058.6142879,-3.188069300610696e-07,4.747906969069868e-07,0.8289109016027032,-0.5593806550139773,4.453801563411608e-08,-2.457221828862538e-07,-0.22850290752203495,0.32188358650884846,0.03322952072546317,9.799999977537277
1727705058.617988,-3.1684323443717276e-07,4.771684284432116e-07,0.8320719308019469,-0.5546677401572874,4.42017406475858e-08,-3.4827426998769554e-07,-0.3165719525639616,0.307810344079765,0.024469857385883247,9.799999990507953
1727705058.647377,-3.149315721906916e-07,4.793187874557178e-07,0.8347932526795214,-0.5505635524445981,4.499510314711895e-08,-3.7808006806783743e-07,-0.32998129231030454,0.01479508675877096,-0.012638919411570032,9.799999963887066
1727705058.889966,-3.1291297883599226e-07,4.814132440735456e-07,0.8375704844523458,-0.5463292812708587,3.973541184401077e-08,-3.902733598940707e-07,-0.3522277809320322,0.3094981620081161,0.01466360060491845,9.799999927186875
1727705058.9008143,-3.105432875191952e-07,4.836499864525488e-07,0.8408015207246093,-0.5413435163986486,3.848990965999016e-08,-4.6669321473748635e-07,-0.4180027821135737,0.3103417174488654,0.0028631744101200994,9.799999984957452
1727705058.9414992,-3.067936151974367e-07,4.872071413840352e-07,0.8456434420736033,-0.5337482261118782,4.4810059815696134e-08,-5.252839798596692e-07,-0.45632302019322485,0.02690102918337414,-0.022735192919449077,9.79999994119848
1727705058.9818597,-3.037798299849046e-07,4.898595245465607e-07,0.8492836615541444,-0.5279367975590006,4.238014379711509e-08,-5.280178440117475e-07,-0.4573094112091931,0.005510812639808622,-0.02903634553099186,9.800000021415062
1727705059.022178,-3.0072936845291895e-07,4.92477883452037e-07,0.8528855033614007,-0.5220979966975905,4.10796946708476e-08,-5.287013328245452e-07,-0.45736873084850005,0.004222859424654403,-0.029266377072245643,9.800000023121944
1727705059.0690856,-2.9664378967155765e-07,4.958059636098611e-07,0.8573400445273458,-0.5147504716360297,3.1631430682832446e-08,-4.67642377870404e-07,-0.38336929160516414,-0.5151930482477834,-0.11017860244359286,9.800000121003102
1727705059.318165,-2.94286201638934e-07,4.977664089503488e-07,0.8598713065057865,-0.5105108581094993,3.1461942888664665e-08,-3.7001850375567186e-07,-0.3318116459484591,0.316191140759809,0.018838428624258243,9.800000056937026
1727705059.3205884,-2.9189829461137405e-07,4.997172450892299e-07,0.8627343200984439,-0.5056574857786056,3.0440171228557016e-08,-4.4613591184192024e-07,-0.3975838991570985,0.30978173941508125,0.006733648350534186,9.799999982457187
1727705059.3401217,-2.9122694008463517e-07,5.083739990918393e-07,0.8670541867553433,-0.49821384688674286,6.810188633647861e-07,-5.037002208384844e-07,-0.4264327866577912,-0.10008267615699522,1.7675916539155658,9.799997790312284
1727705059.4312875,-2.9293776193778936e-07,5.189299541604954e-07,0.8701139382587235,-0.4928506208249504,6.607124516239556e-07,-4.873718929991909e-07,-0.4042946920893033,-0.07615278025060226,1.7721985428759226,9.799997753239435
1727705059.4682505,-2.934942519491675e-07,5.27323444737621e-07,0.8729552024115212,-0.4878003839505416,3.3842971671592206e-07,-4.628601791962245e-07,-0.3706826849915989,-0.22066492279280295,0.9126513973041689,9.799994543199189
1727705059.4999294,-2.916224942648158e-07,5.305825043910763e-07,0.8752840315400573,-0.48360920600275703,-5.9017617688197785e-08,-3.749702609624404e-07,-0.2880141550892442,-0.4453326333287555,-0.18614647087132022,9.799994982898077
1727705059.6953998,-2.910948241165139e-07,5.360996626863314e-07,0.8775411050016868,-0.47950141713246913,5.774359486308685e-07,-2.7105421402695425e-07,-0.2181181582424973,-0.051508284289081156,1.6518066561214013,9.80000836106144
1727705059.6969593,-2.910594637111014e-07,5.399578084033956e-07,0.8788546637503798,-0.4770895932671666,1.0669242788835819e-07,-2.1450042739623728e-07,-0.1654188036127671,-0.18653625931267678,0.3641370244976753,9.799997514867343
1727705059.7102997,-2.8962563356877455e-07,5.404792380782162e-07,0.8799655743050837,-0.47503745961507937,7.55658194921546e-09,-1.8889813395334258e-07,-0.14585177275514674,-0.1642474978522212,0.09575334550119258,9.80000070843016
1727705060.0125568,-2.8784097729906553e-07,5.40881759163773e-07,0.881233218112462,-0.4726817272698179,6.233555707448166e-09,-1.5622457864667666e-07,-0.11156948381688304,-0.37872861052351436,0.06209392856317024,9.800000741085618
1727705060.0276089,-2.882257065902916e-07,5.433767973898395e-07,0.8817240883292925,-0.4717654417817182,1.5269588124225613e-07,-7.236605146196507e-08,-0.04843615801954251,-0.27607020371102153,0.49524331614673206,9.799999287592822
1727705060.0580592,-2.8875514162844075e-07,5.448859360019492e-07,0.8818050574099963,-0.4716140802878695,2.4476159691089478e-08,-2.1349261927535622e-09,0.0015666463117654744,-0.13055095264675573,0.17390887504923822,9.799997450710244
1727705060.098057,-2.8826276590592163e-07,5.437601578866195e-07,0.8817606959800111,-0.4716970161284337,-1.2227896183849393e-07,8.47853728552154e-09,0.004562024925601563,0.006590269217174827,-0.21647879116085367,9.799998723227514
1727705060.153744,-2.880019624570584e-07,5.431110589931024e-07,0.8817297525051735,-0.47175485535051753,-4.1818362636175504e-08,7.674364183956991e-09,0.0043506920390635,-0.0008057828231764464,-0.0005747462645946895,9.800000034205055
1727705060.1834915,-2.885692349744606e-07,5.43890945599988e-07,0.8815521088494247,-0.4720867286661987,1.3005263957819556e-07,4.538708686527567e-08,0.04525987682154702,-0.279370474678873,0.43805596911789946,9.800000007183176
1727705060.4393854,-2.8877985877482496e-07,5.432179839255053e-07,0.8811838090579177,-0.47277383033941367,-4.170941639018249e-08,6.79333887009505e-08,0.05277116736904436,-0.018116150349956388,0.00017455984347145438,9.799999947966707
1727705060.4516675,-2.825402406236882e-07,5.301246653033078e-07,0.8807129532148157,-0.4736503922085116,-7.133466053518296e-07,6.229900126632976e-08,0.047981450371954226,0.005311221700690276,-1.9201065345260555,9.800002447819853
1727705060.4757242,-2.7798418791712397e-07,5.206654394029799e-07,0.8803879214483981,-0.47425426489112427,-6.921124659417137e-07,5.687896145618331e-08,0.04460881784504304,0.007739720963875553,-1.9199805213205519,9.80000240320336
1727705060.5052094,-2.735336510734232e-07,5.11503832873415e-07,0.8800856296367471,-0.474815000296488,-6.715063623223558e-07,5.1882107254430386e-08,0.0414182976617397,0.009784417975209143,-1.919859286555815,9.800002359927174
1727705060.6128697,-2.8008176832507876e-07,5.225821674502358e-07,0.8797136103615557,-0.47550390507785034,6.333618556658464e-07,4.6690151238577624e-08,0.0378349651820964,0.010497339010772046,1.7321395425016577,9.799997818316257
1727705060.643356,-2.8324971489409745e-07,5.277064525517265e-07,0.8793855602493261,-0.47611031959475547,-4.455645338232212e-08,6.106646920823022e-08,0.06470062101920296,-0.40446676644630364,-0.15182669577744307,9.799987024647232
1727705060.8537812,-2.843588142467915e-07,5.280354073454375e-07,0.8786408205901548,-0.4774833069252783,9.536769217404542e-09,1.3666813197742357e-07,0.11407470884683833,-0.0903276711601238,0.042643862051361045,9.799997560099907
1727705060.8583918,-2.881677665743582e-07,5.32285679792796e-07,0.8777177734449663,-0.47917795251706274,-2.871225908734222e-09,1.0929596963096213e-07,0.08618851507888223,0.023842713979318267,0.05652148545694275,9.79999764734197
1727705060.8882687,-2.9015456874460315e-07,5.342439430622494e-07,0.8771362243983233,-0.48024165151294873,4.7792311659335706e-08,9.838139667317776e-08,0.07768821569995067,0.008426819956800424,0.2085907394126677,9.799990706129584
1727705061.173878,-2.906445767832937e-07,5.335819944722539e-07,0.8765800876217789,-0.4812560129334753,-2.6461928711096255e-08,9.649117661950555e-08,0.0770533068419047,-0.014680377156156268,-0.00013932933557316352,9.799999979038155
1727705061.1764867,-2.94035671448593e-07,5.382204393173914e-07,0.8759657078430936,-0.4823733809846603,7.988306357642439e-08,1.1207511538283047e-07,0.10024053386576139,-0.3087814546063093,0.282542427261667,9.799992083483094
1727705061.202937,-2.9506950398868857e-07,5.37184877819111e-07,0.8748797069144623,-0.4843402713267698,-3.6800306376323666e-08,1.427198817250223e-07,0.11353908639039861,-0.02925144066235238,-0.0016853937758858327,9.79999998963176
1727705061.246134,-2.9576418125904244e-07,5.361744160822943e-07,0.8740530565996242,-0.4858304789208674,-3.5858044160237395e-08,1.4272054807353718e-07,0.11361719102468837,-0.02647757784189352,-0.0017365461106247525,9.800000008475527
1727705061.2779138,-2.9670778675054385e-07,5.353807252335489e-07,0.8730768159571497,-0.4875826836934945,-3.410919524223259e-08,1.6976914338300922e-07,0.13611327823167452,-0.04945495273764806,-0.002219246661840626,9.799999890689971
1727705061.3330216,-2.985996004631353e-07,5.351840877890333e-07,0.87174064118051,-0.4899676055759378,2.5471040062880767e-07,1.7089271022643703e-07,0.13710911013829927,-0.03737118845529485,0.7959921126890865,9.800004715417037
1727705061.554013,-2.9959609426002914e-07,5.342663222692494e-07,0.8707298675429722,-0.49176162697817605,-3.516909319792752e-08,1.7205384143220694e-07,0.1372978339085122,-0.033504069050971724,-0.00031474872160414623,9.799999908770124
1727705061.5579734,-2.9538292731535213e-07,5.241961570016658e-07,0.8697608043460874,-0.493473548655736,-7.151168362468683e-07,1.6095325080735753e-07,0.1281215089533487,0.01123284798710277,-1.9200003845073519,9.800002451893112
1727705061.5922034,-2.8982886344619335e-07,5.113040071480618e-07,0.8685653498020496,-0.4955746493949199,-6.869021044763424e-07,1.4255580147366304e-07,0.11662101697614399,0.020107396045551073,-1.9195146117323414,9.800002392217145
1727705061.624496,-2.8571828356691186e-07,5.02018618911973e-07,0.8677375740649843,-0.4970226378702304,-6.664669032505117e-07,1.3000353893893665e-07,0.10852916868129314,0.025610092362792988,-1.9192057796838828,9.800002349072397
1727705061.7012691,-2.8407970378502677e-07,4.974068136368088e-07,0.867148404874812,-0.49804984080184267,-1.8632555892267922e-07,8.124096827866087e-08,0.05697469798347168,0.31374697822340725,-0.587793439413163,9.800001821215506
1727705061.7321143,-2.8314756164275527e-07,4.951181255502349e-07,0.8670591733888379,-0.4982051684215447,-1.5419846365288257e-07,3.131062071622641e-09,-0.010347129682941903,0.3108467453616842,-0.5124236659094883,9.800000782312287
1727705061.9385185,-2.827982719072257e-07,4.951497076224801e-07,0.867418472472206,-0.49757933398972576,4.753654090352589e-08,-4.4384501050042435e-08,-0.03907320282525062,0.007252233885020334,-0.0013156122456512527,9.800000082936734
1727705061.9420009,-2.8268976763861573e-07,4.960350158391423e-07,0.8681042368519617,-0.49638194362743204,4.700872378535276e-08,-1.1820233121110145e-07,-0.11781632375489771,0.3589541494831178,0.04717575477339748,9.799999934004878
1727705061.9602773,-2.8203000583604784e-07,4.972264377777543e-07,0.8691954375534523,-0.4944686960121294,4.606103044799078e-08,-1.7141597298473666e-07,-0.15028530915483856,0.026300634131303752,0.0005869325371537445,9.7999999790812
1727705062.2651527,-2.809587920778387e-07,4.988677680191215e-07,0.8706840479936275,-0.49184274780574166,4.4186939668079695e-08,-1.7368373224632305e-07,-0.15099041202986116,0.0006062696487789443,-0.0031590626879401257,9.799999994142906
1727705062.2704458,-2.7997693058420337e-07,5.001586756114069e-07,0.872145798719133,-0.48924605851885694,4.230648541627893e-08,-2.403249124350894e-07,-0.22191960524092055,0.3240576086227269,0.03421219257363578,9.799999949897385
1727705062.2790132,-2.784711843228472e-07,5.017586059343474e-07,0.8740929773429769,-0.48575865093620363,4.8955704326386005e-08,-3.177953154089636e-07,-0.28796069439320543,0.3029837471191543,0.04543537978557871,9.800000094434994
1727705062.3203073,-2.759055874479236e-07,5.041707863457982e-07,0.8769632042157869,-0.48055752876346625,4.205410688664313e-08,-3.4392519247933236e-07,-0.29792431594342683,0.003928600165138838,-0.012090585192710647,9.800000003560195
1727705062.350792,-2.7392430693579036e-07,5.059562702516074e-07,0.8791023588035457,-0.47663302733414387,4.077817292719981e-08,-3.444183000681464e-07,-0.2979825199379339,0.0018080452862191078,-0.012414691607821183,9.800000005611823
1727705062.4106278,-2.719242378150158e-07,5.077176361849054e-07,0.8812240026708881,-0.4726989074626334,3.9546662143846346e-08,-3.4473711849815477e-07,-0.29798376426248446,0.0017627085150726592,-0.012421188027173524,9.80000000590584
1727705062.4418125,-2.697672397001799e-07,5.095423571062587e-07,0.883587625661596,-0.4682658516028802,4.006886256656242e-08,-3.9595646654726783e-07,-0.3461146283783245,0.10564512889086299,-0.0004423820334601156,9.799999938025794
1727705062.6587317,-2.663633926327898e-07,5.121346889908736e-07,0.8871383660088472,-0.46150354229931917,3.4008428599551116e-08,-4.664569383443461e-07,-0.4147805402129475,0.3103413807342368,0.003475916839095767,9.79999998780722
1727705062.6774325,-2.632896779198494e-07,5.144547997046503e-07,0.890262292889904,-0.455448185700719,5.5353798907442115e-08,-5.366430719944078e-07,-0.4678189538755072,0.13837790222206314,0.029937820334041878,9.800000221501426
1727705062.7106512,-2.598964304153762e-07,5.168676266734706e-07,0.8934696301459548,-0.44912361328092754,3.943619906553262e-08,-5.499685922801615e-07,-0.47363420901313574,0.012521620247744496,-0.029675139956047352,9.800000012112822
1727705062.7529364,-2.5528083514265454e-07,5.200142838447505e-07,0.8976866506220561,-0.44063440321270747,3.765591026593992e-08,-5.514022651363481e-07,-0.4739975901763913,0.004636016271659959,-0.03141885316514644,9.800000028488482
1727705062.789486,-2.5178641196406983e-07,5.223293668881704e-07,0.9007968748298352,-0.4342407054808032,3.650507162024214e-08,-5.518810001923386e-07,-0.4740058287085044,0.004457093974668985,-0.03144635507137086,9.800000028797283
1727705062.8191485,-2.4812334679148886e-07,5.246864012065988e-07,0.9040933782431215,-0.427334954592534,3.8399142918139124e-08,-6.022502845614403e-07,-0.5207519378990006,0.10315578850557845,-0.020290732210793156,9.799999916172936
1727705063.0652072,-2.469684620686002e-07,5.366590030008048e-07,0.9084240571093324,-0.41804991623569443,6.716784334603032e-07,-5.979342732406852e-07,-0.5011052244259108,-0.08799423575595422,1.751089755604715,9.799997795718488
1727705063.0955536,-2.469905872670193e-07,5.47500242805314e-07,0.911450426940398,-0.4114099162997966,6.515968473679961e-07,-5.832267313593986e-07,-0.4792175196956564,-0.060287367296763844,1.7565035693964124,9.799997758733406
1727705063.124849,-2.4669207871939457e-07,5.575696276486505e-07,0.9143143706629677,-0.4050052241623676,5.984879495606179e-07,-5.715855940690349e-07,-0.4620248133791546,-0.015390886606787878,1.6683796578104877,9.79999784498674
1727705063.3886118,-2.4102957995265117e-07,5.552970784987644e-07,0.9170313978766391,-0.3988150138949768,-7.23716427467337e-07,-5.518222722381374e-07,-0.44544171720416836,0.00797631097415296,-1.979527197896153,9.800002541833777
1727705063.3983467,-2.329411378309156e-07,5.496987445816081e-07,0.920225212074463,-0.3913892679445275,-2.610894410844962e-07,-4.6053286889816905e-07,-0.3675756227857593,-0.3237445404410139,-0.7826273414877398,9.800002110843469
1727705063.4300942,-2.287068136687166e-07,5.476568239472105e-07,0.9220547031877899,-0.3870595875687927,-2.3358700976809696e-07,-3.600055233999333e-07,-0.2862457379353796,-0.35068217238649035,-0.7153066893762329,9.800000831968065
1727705063.4633548,-2.256453532565189e-07,5.46391114761459e-07,0.9234993675762895,-0.38359994536736286,5.514333868472717e-09,-2.889172719202985e-07,-0.2561405788113571,0.3277488964188501,0.028814584553504687,9.800004809982779
1727705063.5362883,-2.2252857059501219e-07,5.477957511223158e-07,0.9258691238594814,-0.3778443667481714,5.143798998931053e-09,-3.9428473292559406e-07,-0.34427910148979335,0.33001132030873215,0.016047970094511955,9.799999977983845
1727705063.5646796,-2.2180402537089937e-07,5.541922153758293e-07,0.9278207627681364,-0.3730263156615053,1.7846347939202532e-07,-4.2055138171139626e-07,-0.3576838676055784,0.21144934458647582,0.5029283863141202,9.799997074820265
1727705063.7948668,-2.18929073198719e-07,5.557208298347523e-07,0.9296909668590401,-0.3683404758377045,-4.244148076356047e-08,-3.8508041753476947e-07,-0.30098759382157125,-0.4619435141928552,-0.18814283851616015,9.800000235476567
1727705063.8228252,-2.1702226372844298e-07,5.59543962779476e-07,0.9314344743749333,-0.3639090819772592,6.997335793535765e-08,-2.629841697736054e-07,-0.2123723169575007,-0.12499670080001095,0.1957282255890021,9.799996712111477
1727705063.8528364,-2.152095920763232e-07,5.60144943027699e-07,0.9325695972870587,-0.36099023008316034,-1.0878753239489737e-08,-2.511673850533029e-07,-0.2083608502114089,0.02038262064785273,-0.005840597231571137,9.799999982173777
1727705063.883601,-2.135490504963634e-07,5.610555137544784e-07,0.9336740174177122,-0.35812404163740386,-1.335784873917022e-09,-2.446952048947675e-07,-0.2023686730357488,0.005349136600836548,0.020260735880182224,9.799998732403685
1727705063.9200964,-2.1178032546001652e-07,5.615601829421796e-07,0.9347545053663284,-0.35529426493681315,-1.1372858001790277e-08,-2.4318929703534773e-07,-0.20188473735066026,0.022890290891704843,-0.005619519402429666,9.800000005193558
1727705063.9622397,-2.0945325531189917e-07,5.624569651221925e-07,0.9362255590529032,-0.3513996337159706,-1.1254163324268914e-08,-2.514719693560314e-07,-0.20878187733293707,0.025863862743892473,-0.005506907152283438,9.799999994125349
1727705064.1928651,-2.0751353738574699e-07,5.624197165608553e-07,0.9371468348572494,-0.3489352517540751,-8.489671825725791e-08,-1.9239038082664136e-07,-0.14282836691324094,-0.42415602822119036,-0.26843412396406413,9.79999958822975
1727705064.2219348,-2.060396400844554e-07,5.616672689046299e-07,0.9377372218759994,-0.34734550912301254,-1.2101692110925263e-08,-1.316814129168183e-07,-0.10949882474926617,-0.014936507568772107,-0.015706391068349045,9.800000478133093
1727705064.283863,-2.0476528319303753e-07,5.61812836427754e-07,0.9384471674039483,-0.3454228046773232,-8.270524521077198e-09,-1.1837008896279045e-07,-0.0992872511940055,0.0027386984049979635,-0.003834072837032144,9.800000068488709
1727705064.5542696,-2.0559815990423113e-07,5.666231737366311e-07,0.9389676704066294,-0.3440053981128546,3.5133852306480417e-07,-1.2114013319037062e-07,-0.10606593539933905,0.1414422577008438,1.0283828759947482,9.799993547613282
1727705064.5729976,-2.0517600964678982e-07,5.686604235440042e-07,0.9396959843869551,-0.3420109017658143,1.376391026370749e-08,-1.8181784837594493e-07,-0.16269645130705673,0.3428389178746021,0.13555676599024785,9.799997105071254
1727705064.6058583,-2.035027791531254e-07,5.70710489299349e-07,0.9410441834063121,-0.3382836751556009,-1.3956845810742725e-08,-2.524249953834382e-07,-0.20836388941302666,0.06475934814560286,0.023184054116201176,9.79999888998783
1727705064.6348474,-2.0124444936360002e-07,5.702847249003025e-07,0.9422155348888873,-0.33500729217986025,-1.5357835198158323e-07,-2.9553089578713725e-07,-0.25330795652480287,0.313369778361895,-0.3368572878072322,9.799998519807078
1727705064.7143908,-1.9857323544578017e-07,5.700474489174884e-07,0.943582952198553,-0.33113624434649086,-2.0548799324971595e-08,-3.3495529446150024e-07,-0.276200101962628,0.059365327391359426,-0.016695137418381877,9.80000040499783
1727705064.746317,-1.9625651975669152e-07,5.712324678916085e-07,0.9450014272927549,-0.32706620494066807,7.189370806580154e-10,-3.55993840433464e-07,-0.2948300744839327,0.10259776520891721,0.046957576210827266,9.799998227080955
1727705064.9690084,-1.9313477709419808e-07,5.734401007692802e-07,0.946995385319386,-0.3212471636970849,1.2410582932807815e-07,-3.8790174534398506e-07,-0.3264145018508154,0.25644674780863835,0.40837474835528526,9.799999555067483
1727705064.9720995,-1.907690170117008e-07,5.762630592405224e-07,0.9486960732323095,-0.31618943789005316,1.27442046282094e-07,-4.4360346752234013e-07,-0.3703537188912854,0.2635790124619482,0.4207981717176354,9.799999477602887
1727705064.9853415,-1.8851231184177372e-07,5.806520727147443e-07,0.9505150899476362,-0.31067839284614585,2.2092817703811191e-07,-4.793227279368416e-07,-0.39437097717487934,0.20579702678410516,0.682726909750741,9.7999959366673
1727705065.0264168,-1.8438396162312716e-07,5.842611759650724e-07,0.9530213256055844,-0.30290320721411873,6.451009501663826e-08,-5.117195880786368e-07,-0.4142127944566693,0.11306760603841487,0.24682056733767402,9.799995330017877
1727705065.0633943,-1.806240930644053e-07,5.852609744886728e-07,0.954879839833239,-0.29699240980144964,-2.862301213425457e-08,-5.114918947676542e-07,-0.41271428191687876,0.08404394976941061,-0.013710677633862642,9.79999980019303
1727705065.0912647,-1.7726389346829696e-07,5.877940259052617e-07,0.9567621710366915,-0.29087136000778724,-7.490826885614466e-09,-5.330658848349734e-07,-0.4303226602068832,0.1261639113391582,0.05399680222429929,9.799998286050025
1727705065.351909,-1.725960115151573e-07,5.911964947285116e-07,0.959275907018991,-0.28247076700521195,2.1188592494723685e-07,-5.540173966919176e-07,-0.45036796266258233,0.23579797531843663,0.6780387352493187,9.799998802004598
1727705065.3810399,-1.6891221021255785e-07,5.942465180164045e-07,0.9612755545000624,-0.27558902068154967,1.1301336998966585e-07,-6.057565499372761e-07,-0.4922088300412941,0.32074671979239994,0.4181744179104411,9.799999331556092
1727705065.4141433,-1.6470368346971278e-07,5.970156313205487e-07,0.9633796071049733,-0.26814125496440055,1.6965554362388744e-08,-6.547791744179523e-07,-0.525236822928268,0.23295130750798743,0.14036512018527914,9.79999770574098
1727705065.66959,-1.5878829544905244e-07,5.944416495183515e-07,0.9654693923390636,-0.2605165109087334,-7.452420052799153e-07,-6.602777787079295e-07,-0.524182368459064,0.08078684939674459,-1.9969202752016855,9.799988499740909
1727705065.6828785,-1.4884857389688097e-07,5.820498532816178e-07,0.9680848015131914,-0.2506228582528007,-7.160142215694054e-07,-6.171228048646096e-07,-0.5040351365668769,0.03127533581691465,-1.9925313659872506,9.800002538383461
1727705065.7168386,-1.41949946397992e-07,5.73310915687193e-07,0.9699073250560525,-0.2434743945515913,-6.608292706680251e-07,-5.82532707552866e-07,-0.484772646243996,-0.028039961322724193,-1.8967524761609276,9.800002373938094
1727705065.7431445,-1.359374151825822e-07,5.666355036658729e-07,0.9716185971263198,-0.23655295753370253,-2.85602687516501e-07,-5.536091043183471e-07,-0.477848732103952,0.1412417861985352,-0.8802906372076631,9.800008191652346
1727705065.8040497,-1.2957757742562688e-07,5.646635092015379e-07,0.9739648871730662,-0.2266989160839123,-1.2247442102877197e-07,-6.018384488418164e-07,-0.5272833944807355,0.2310563371915442,-0.44818893382025243,9.800000831961231
1727705065.8358424,-1.2476026509530973e-07,5.647961370701597e-07,0.9758472880726562,-0.21845381745556308,-1.0306326701096826e-07,-6.609752810789874e-07,-0.5796583915794443,0.2410076044969177,-0.41173162481702386,9.800000048754441
1727705066.0480037,-1.1949362496974e-07,5.647641176883612e-07,0.977809480985506,-0.2094961071106624,-1.6978700431199122e-08,-7.138379639008954e-07,-0.6294042893837524,0.2924428470870101,-0.18745370257413485,9.800002038481546
1727705066.0616527,-1.118415847936559e-07,5.64859577293255e-07,0.9805172924639767,-0.1964327853968913,-1.542482216264283e-08,-7.829880339836207e-07,-0.6846523436780009,0.12656501074944648,-0.23149305200138248,9.800001971845754
1727705066.0903523,-1.061458333711952e-07,5.666444447510118e-07,0.982494614240818,-0.1862909900866182,4.898602293128386e-08,-7.942622827074573e-07,-0.6895982997623497,0.016283181322832137,-0.06841272096106646,9.800000129223205
1727705066.1224103,-1.0041647970138929e-07,5.684592872920653e-07,0.9843696734901057,-0.17611458177178158,4.8492685168169926e-08,-7.95973160258715e-07,-0.6898952648497638,0.00979050207735903,-0.06661892676628545,9.800000067753883
1727705066.1540513,-9.465581017894968e-08,5.701958512280437e-07,0.9861394803413223,-0.16591842969306653,4.7024843249692686e-08,-7.970516862549554e-07,-0.6899131139534108,0.009402070664463805,-0.06663163994483061,9.800000067224481
1727705066.1943324,-8.673615410999498e-08,5.722262017171589e-07,0.9884343834785712,-0.15164916602804285,4.093184522575819e-08,-8.597980242729487e-07,-0.7550537591895086,0.30894264844282954,-0.05754596918919254,9.800000297900281
1727705066.4280386,-8.076393458630442e-08,5.77269346634315e-07,0.9901124187571626,-0.1402761498705371,6.853983902834991e-07,-8.900396317822756e-07,-0.7628339326931531,-0.10604426261912982,1.6715522726176157,9.80001046997787
1727705066.4574387,-7.550930341069327e-08,5.881641224902198e-07,0.9916240895077186,-0.12915752052295004,6.649572263350526e-07,-8.820776153848753e-07,-0.740763621307615,-0.06312742956518852,1.6801363076555418,9.799997873279944
1727705066.5198472,-6.833022964887363e-08,6.021282179213621e-07,0.9933879120939495,-0.11480616754014605,6.385545532634096e-07,-8.703923175757323e-07,-0.7124532277137636,-0.009609541218488433,1.6907311629264719,9.799997821995044
1727705066.7647793,-6.279942797991785e-08,6.118514365750827e-07,0.9945388892581806,-0.1043666505773081,5.854271911276316e-07,-8.631431744824732e-07,-0.6948343773932253,0.047875974292848296,1.6050008083904466,9.799997907227793
1727705066.7672963,-5.7153101645766145e-08,6.210770776208746e-07,0.9955578868737127,-0.0941514412165751,5.677888218286935e-07,-8.576778406893633e-07,-0.6792442860666646,0.08226908627699686,1.6105629516820363,9.799997876017292
1727705066.8060977,-4.9060612642244085e-08,6.262530910348844e-07,0.9967026418690725,-0.08114088790995588,-2.2666354590345316e-08,-8.191662104358154e-07,-0.6407204852042792,0.12049424691677948,0.029033684844672294,9.79999779739609
1727705066.8383849,-4.289322635504909e-08,6.265517282596947e-07,0.9974306811573352,-0.07163823201070874,8.965401848178858e-08,-8.067158697030826e-07,-0.6332788160480111,0.1532367082039756,0.34461411110355283,9.800002716480549
1727705066.9089682,-3.676056641755623e-08,6.264612148069643e-07,0.9980642753189386,-0.06219085408392405,-4.329003137006427e-08,-8.022537120851739e-07,-0.6301752780333567,0.16808275338579398,-0.019892316917184197,9.799999977370062
1727705066.9407642,-3.097128840158502e-08,6.316708414165286e-07,0.9986015026484167,-0.05286812752428516,4.5895727698919863e-07,-7.918779617364828e-07,-0.6146063879150931,0.05291919375232804,1.3736148030157933,9.799996379334088
1727705067.1813178,-2.3399968406423985e-08,6.362436622627795e-07,0.9991539823481318,-0.041125655708623476,5.406149952075423e-07,-7.496476371170454e-07,-0.5800895632084998,0.11946608085733734,1.6406278083576773,9.8000094482972
1727705067.1859238,-1.7969049153288174e-08,6.423497332944052e-07,0.9994645948414849,-0.032718857833568704,2.711258676046698e-07,-7.218153951932356e-07,-0.5448764694445876,-0.035330478716815564,0.9178963346552101,9.79999687965234
1727705067.2179408,-1.2743078052207764e-08,6.446369824061348e-07,0.9996900867588634,-0.02489438562488605,-1.842908448969595e-08,-6.791357982307655e-07,-0.516331596346418,0.15453257947420157,0.16972899880254835,9.799995327734848
1727705067.2585695,-5.9162813811684775e-09,6.450436712449073e-07,0.9998921689133519,-0.014685044955218385,2.886082392938144e-07,-6.634376009630156e-07,-0.5027153552712347,0.076944031006973,1.0073506025398675,9.800006011227568
1727705067.2911248,-9.349403423234643e-10,6.443464686717198e-07,0.9999737823594128,-0.007241173481846663,-8.517312496433602e-08,-6.483233449798117e-07,-0.4947184343980915,0.19295312545008467,-0.004268425823977919,9.79999973450604
1727705067.323981,3.969191896161102e-09,6.431153487850206e-07,0.9999999936604089,0.0001126000367252522,-9.847932058870911e-08,-6.380736756856009e-07,-0.48739425951810855,0.17397027255896919,-0.04805034169444884,9.799999565647365
1727705067.6008804,1.0375723586051363e-08,6.435800813767418e-07,0.9999529201213342,0.00970348083950301,3.797654878802122e-07,-6.189016399305788e-07,-0.46913572839036866,0.030742694546673187,1.252428339471932,9.80000755302134
1727705067.6331565,1.4890012954979184e-08,6.464161729484715e-07,0.9998695681309009,0.01615074999210897,1.2677167759083564e-07,-5.489991281121001e-07,-0.407415876395294,-0.1304431038612206,0.5640866863368829,9.799998204053528
1727705067.679524,1.8693103823954102e-08,6.422720567170628e-07,0.9997610761249323,0.02185842320718434,-8.021224144972774e-07,-4.918248190531209e-07,-0.37440053195213635,0.11796641528425629,-1.9649062006151516,9.799988008233566
1727705067.9295206,2.200420179393595e-08,6.304198595675971e-07,0.9996264227779863,0.02733157301891803,-7.783036476367208e-07,-4.6286234599260317e-07,-0.36022348331839027,0.08740899805526722,-1.9626986630181273,9.800002631485432
1727705067.9380193,2.6871638558458392e-08,6.410862694100528e-07,0.999412537291545,0.03427215056083377,5.307828442493403e-07,-4.409391804887569e-07,-0.33942625568745505,0.07480435818702758,1.6922660612171743,9.799997720549369
1727705067.968692,3.0286830680879736e-08,6.457302127565028e-07,0.9992390704192018,0.03900359146734794,1.4620905337348964e-07,-3.9910738353362474e-07,-0.29513565972470274,-0.16117890365190776,0.6351130982404716,9.799996593180035
1727705067.998898,3.299714161391873e-08,6.453436760014061e-07,0.9990744173701208,0.04301521307788364,-9.919682378137754e-08,-3.436936074384436e-07,-0.26378342413326716,0.10295795026150355,0.0036434964288977805,9.799999272766401
1727705068.0782647,3.616515929897113e-08,6.43649962509889e-07,0.9988517963321293,0.047907086779132524,-1.0228839912885266e-07,-3.139652111478646e-07,-0.24296601942659554,0.11698906134239102,-0.007882503761593811,9.800000000539944
1727705068.1103277,3.841899134214709e-08,6.417889667710748e-07,0.99867191736253,0.051520883833984066,-1.0555334475338874e-07,-3.0946541565002443e-07,-0.24008534944909887,0.11144459122263664,-0.02671490663488595,9.800000835373682
1727705068.3330035,4.065314261069831e-08,6.402242704833271e-07,0.9984800705286843,0.055113961539908995,-9.621133576617248e-08,-3.0803572136044824e-07,-0.239855324389564,0.11929410601336685,-0.00778681962774834,9.80000002958835
1727705068.346809,4.30918189797885e-08,6.393878459131656e-07,0.9982821208424705,0.05859016304678283,-7.46627080271313e-08,-1.9747590226271744e-07,-0.1537016911990835,0.004752546610777056,0.042672575655681444,9.799997506973806
1727705068.371058,4.442310395325602e-08,6.379349921605307e-07,0.9981459353378619,0.06086617918101611,-9.235526937215664e-08,-1.910435834494457e-07,-0.15201547263445386,0.07946735598974533,-0.0025119609053482627,9.800000014457698
1727705068.6621387,4.5745653240208753e-08,6.36503757146439e-07,0.9980044805290256,0.06314314565796486,-8.970591006018541e-08,-1.9099381274008943e-07,-0.15209938297915473,0.07657399409527818,-0.0031037620718629387,9.800000020535997
1727705068.663612,4.6934605075289833e-08,6.351139819550502e-07,0.9978783530735227,0.0651060094528012,-8.708557284296711e-08,-1.6073885256929573e-07,-0.1286262909748907,0.0465238393758941,-0.004904311142383906,9.800000028704764
1727705068.6928759,4.8424846995894285e-08,6.333278802372915e-07,0.997700729788991,0.06777354777574351,-8.367108677511228e-08,-1.6674854952123677e-07,-0.13417390118284067,0.0686180609791172,-0.002253014384534381,9.800000017984672
1727705068.721985,4.9561111339811654e-08,6.320270142043023e-07,0.997562276937566,0.06978182880045908,-8.12158715760657e-08,-1.6663286402856742e-07,-0.13420671253737873,0.06748649406637422,-0.002424098682359601,9.800000018139945
1727705068.7521958,5.069522534310561e-08,6.307599366832534e-07,0.9974201391428332,0.07178485934993845,-7.883216466392551e-08,-1.6576940425018165e-07,-0.1336415554924389,0.06551232653538906,-0.00264716853687684,9.800000018284997
1727705068.804901,5.220205043964814e-08,6.291195469295438e-07,0.9972313210753287,0.07436190063436732,-7.60313020984893e-08,-1.5465762184908783e-07,-0.11598999475522612,-0.17943466129578955,-0.03671780267865261,9.800000031784764
1727705069.0668275,5.3116214946332386e-08,6.279419458393723e-07,0.9971072071654192,0.07600800890945686,-7.350714619174608e-08,-1.338429526233897e-07,-0.10934387319352948,0.04977980940185078,-0.0023726333616688605,9.800000018503098
1727705069.0682018,5.3172603935825464e-08,6.165243826748599e-07,0.9969863229691351,0.07757752130675527,-7.515359832629958e-07,-1.240268334595315e-07,-0.10277751411735009,0.018904284122588464,-1.9294566717916068,9.800002538030741
1727705069.1075976,5.313070096241069e-08,6.018354933200612e-07,0.9968330661705922,0.07952256402160846,-7.217753960924656e-07,-1.1017890814663073e-07,-0.09448457901428503,0.00923502586319328,-1.9285766080258717,9.800002474622607
1727705069.1352096,5.302134773283083e-08,5.912064779284979e-07,0.9967241434194214,0.08087633723449678,-7.002278831032685e-07,-1.0067662329645381e-07,-0.08860444554690816,0.0029249882943018996,-1.9279557791213076,9.800002428750334
1727705069.197233,5.28530260317979e-08,5.808985959089782e-07,0.9966203970049101,0.08214489803654929,-6.793217630545777e-07,-9.188221906799102e-08,-0.08300860656074865,-0.002639243531788741,-1.9273661763009704,9.800002384288417
1727705069.2288654,5.3185389487084885e-08,5.774665697556018e-07,0.996521839817887,0.08333200324987439,6.585022491050902e-07,-8.50562167109592e-08,-0.07759977795772327,-0.00870841374300393,1.7253945241973965,9.800024115923287
1727705069.4742467,5.503267479486138e-08,5.902082742893741e-07,0.9963986726439875,0.08479201113871843,6.325825434444438e-07,-7.929979371984573e-08,-0.07074892148739481,-0.002437021690977327,1.725816413951036,9.799997827367589
1727705069.4775214,5.636717071090874e-08,5.994329171104098e-07,0.9963121735254343,0.08580240605403938,6.137739067097855e-07,-7.52297120419108e-08,-0.06607653146543742,0.0015794003779447574,1.726061911519595,9.799997798682524
1727705069.4909868,5.765892261332201e-08,6.083827612235794e-07,0.9962304155952934,0.08674652178880632,5.955209576052791e-07,-7.136406896516772e-08,-0.06176494602223385,0.005081201731583117,1.726264337833132,9.799997770889911
1727705069.7730231,5.8576111169652295e-08,6.129049266426447e-07,0.9961558326352808,0.0875988419234594,-2.6559691868278226e-08,-3.442472988223043e-08,-0.03114056772148071,-0.028461559506730877,0.04115956385755534,9.799997890134144
1727705069.7750149,5.893793468823025e-08,6.16239043190809e-07,0.9961554184675689,0.08760355162502925,1.9018038115211556e-07,1.6967667541470133e-08,0.017334011755558248,-0.24024073944046292,0.6265456399351412,9.799999619796264
1727705069.7990139,5.856048892301698e-08,6.166577819089013e-07,0.9962087117816834,0.08699541694765134,-4.5925490298192086e-08,6.158715121402187e-08,0.043719701224937915,-0.04201686171458306,0.00944380700233598,9.799999439919047
1727705069.8406692,5.776456437365577e-08,6.15736435237609e-07,0.9962853725585219,0.08611304445636936,-4.8577686641307404e-08,6.308272493301632e-08,0.04434097039093373,-0.020509263051328525,-0.00024795578313388007,9.800000009914132
1727705069.8712285,5.72367069991442e-08,6.155129485616486e-07,0.9963370399087752,0.08551317387067991,-4.650795188658568e-08,5.701506353939853e-08,0.03963788382045969,-0.014669602182789376,0.004698924808526743,9.799999811955509
1727705069.902616,5.6869334710445257e-08,6.16841630238581e-07,0.9963888578677681,0.08490726657112857,3.535444425054029e-07,5.77338979303735e-08,0.04251878387325671,-0.05859493640398352,1.1034714705336108,9.800006528995228
1727705069.9358444,5.632079893414166e-08,6.164602395123751e-07,0.9964440663297764,0.08425688503497253,-4.868160710215437e-08,6.154202801946359e-08,0.043633029404307876,-0.02157950361143992,0.002753292484819768,9.799999870671687
1727705070.1894796,5.5799469376314705e-08,6.196348116424681e-07,0.996548779537895,0.08300921636267211,1.2810198589136767e-07,1.0394194134957831e-07,0.0867008288949521,-0.28845964030041654,0.46839522470541484,9.799998595012438
1727705070.2127583,5.476608824716967e-08,6.190653369105674e-07,0.9966639784024975,0.08161442369164701,-5.3548758811672836e-08,1.2587470727953594e-07,0.09408996416784397,-0.05255477454080801,-0.0003399862685630392,9.799999942194857
1727705070.2431986,5.365318938408977e-08,6.183364994903054e-07,0.9967858490545406,0.08011224078898915,-5.245339530537635e-08,1.346259568129506e-07,0.10123603245174484,-0.05590973986917022,-0.0022763420933867608,9.80000002236515
1727705070.323029,5.213259852976329e-08,6.174019804785454e-07,0.9969477191871661,0.07807205138282858,-5.0818300647904754e-08,1.3694229721033498e-07,0.1035282951517146,-0.057834506389996064,-0.0038343925877102627,9.800000084609144
1727705070.3628945,5.071288790113506e-08,6.132844933286395e-07,0.9970670921701814,0.07653243567873819,-7.427595860019137e-07,1.3648696137692184e-07,0.10149412065452071,-0.024280895242583582,-1.920925455305234,9.799988694865618
1727705070.3925595,4.8841041636507696e-08,6.024697366720134e-07,0.997177622114254,0.07507855855167167,-7.207159147120177e-07,1.2544742194710038e-07,0.09509357495886911,-0.0167308007417611,-1.9206689078783832,9.800002465386402
1727705070.6144328,4.799695430031926e-08,6.080503791301415e-07,0.9973113855150022,0.07328028603774372,5.98998508345228e-07,1.136945282245232e-07,0.08734799583298639,-0.01023205577121159,1.7315625133793706,9.799997768128497
1727705070.621021,4.75611743613494e-08,6.143394374206104e-07,0.9974122474274182,0.07189442733207202,1.526652486168306e-07,1.2462809801315596e-07,0.10482882359700771,-0.2837801514266233,0.5039237456283595,9.799992443352657
1727705070.6603065,4.638017575977248e-08,6.150128527691132e-07,0.9975500173520322,0.06995686442787113,-3.460737608673329e-08,1.7268348765123252e-07,0.13411689400105947,-0.10006096758013495,0.01923377502870278,9.799998834886294
1727705070.9485724,4.472004311751565e-08,6.111088182266155e-07,0.9976932225425248,0.06788397227870846,-1.5731786521982797e-07,1.8086370610228036e-07,0.14269593793060958,-0.13208614835802618,-0.34440494002394545,9.800009163090044
1727705070.9717343,4.2697106822912165e-08,6.098551163209007e-07,0.9978856267572677,0.06499442984503528,-1.5030623051034387e-07,1.86616598121579e-07,0.14640957473011984,-0.09722139414000704,-0.32809017726372747,9.799998126216403
1727705071.0034215,4.118994647700118e-08,6.093638581099634e-07,0.9980265824314853,0.06279284003575597,-3.227469773345892e-08,1.88129603811714e-07,0.14715241135106855,-0.0703283865221941,-0.003795572809487868,9.800000051123412
1727705071.032179,3.966940766127127e-08,6.086214462429321e-07,0.9981619024392991,0.060603766536309445,-1.0274381948999952e-07,1.8624831846554848e-07,0.14431869424233806,-0.030330762056714793,-0.19606872890426763,9.79999883547566
1727705071.0893795,3.772743151643594e-08,6.080788265964558e-07,0.9983315232551397,0.05774226939340693,-2.9078940649257364e-08,1.8219220258394958e-07,0.14322744664679316,-0.06733814951584999,-0.0027037656738529998,9.80000001274703
1727705071.119187,3.628078327512661e-08,6.082583956382721e-07,0.9984580969223034,0.055510617812462915,-2.731824219640217e-08,1.8990412410460127e-07,0.1497056765770217,-0.0760376946562401,0.0014615653924432456,9.799999781992963
1727705071.3512883,3.4687340636028875e-08,6.063493244387817e-07,0.9985813388178643,0.05324762684245221,-6.442318255265932e-08,1.918555853074395e-07,0.15196608030906544,-0.077593355369524,-0.11171089292111373,9.800004869267532
1727705071.376467,3.264195748186181e-08,6.055913134360909e-07,0.998740936619339,0.05016514248317777,-3.1814135307193726e-08,1.971738393582194e-07,0.15708443254219528,-0.0875272322507549,-0.0285185217873076,9.800001059989672
1727705071.4002779,3.108771640346924e-08,6.053121326494246e-07,0.9988566272735884,0.047806256402947556,-2.265545352392987e-08,1.9805937304348192e-07,0.15749149933418877,-0.07333902846862117,-0.0033411922647655695,9.8000000118584
1727705071.4831166,2.951911393192108e-08,6.048322784847331e-07,0.998968194798114,0.04541525934562496,-2.6918685494709163e-08,2.0153578750114533e-07,0.16099140281609348,-0.08480188143362594,-0.01972781484523995,9.800000682466813
1727705071.510318,2.7939148630788775e-08,6.045768492327999e-07,0.9990751194407965,0.04299890363708908,-2.0859469757570283e-08,2.0207959832200354e-07,0.16127866343531144,-0.07479271086473505,-0.0034637280284163107,9.800000010556843
1727705071.5657003,2.587661460348595e-08,6.030145477654487e-07,0.9992008286775431,0.03997128931804356,-1.8322478268440845e-08,1.8794498558049704e-07,0.15054154670120568,-0.06631173246890043,-0.004299981479280917,9.80000008207508
1727705071.7685013,2.449075419579517e-08,6.024523072181489e-07,0.999270095089765,0.03820048506142176,-5.2279530129734324e-08,1.2923261265391224e-07,0.0860284006449768,0.39240676462403407,-0.03667144811647074,9.800000050038417
1727705071.7763658,2.381088918087287e-08,6.022300080736689e-07,0.9993032200917503,0.03732391075296704,-1.693762750932211e-08,6.983652935525673e-08,0.055179623788488924,-0.001136224388205317,0.0032604754629952408,9.799999986976632
1727705071.8178723,2.3098993801521802e-08,6.019224066043951e-07,0.9993433542945431,0.03623341312888689,-1.636669599308924e-08,6.764901750041855e-08,0.054500404382136755,-0.0246807578686838,-0.0003423229075600333,9.800000003647144
1727705072.0608041,2.25637545029135e-08,6.00000362146045e-07,0.999363787951808,0.03566537999591868,-9.099840121858672e-08,3.726150667475649e-08,0.024951097115972903,0.11434938268115799,-0.19747427714317872,9.80000396143087
1727705072.0832977,2.236340073652897e-08,5.995543808812142e-07,0.9993722602437779,0.0354271852520468,-1.265485587833746e-08,1.8516406080699276e-08,0.014809801390587496,0.001254088175586988,-0.001437553000163157,9.800000114674022
1727705072.126152,2.217287412915896e-08,5.993310974337495e-07,0.9993825679047188,0.03513520980171364,-1.1268401925496404e-08,1.7820567366809195e-08,0.014587804349229665,-0.006448316092781171,-5.445230749664328e-06,9.800000002301378
1727705072.1525135,2.2034836850694418e-08,5.992699191321468e-07,0.9993902298329245,0.03491659367884836,9.051225871067026e-09,1.7776284377760367e-08,0.01457666391471537,-0.0063040101286278545,0.055403676936469456,9.800000329822074
1727705072.1899922,2.189414376664183e-08,5.991268484612402e-07,0.9993978384960851,0.03469813264418492,-1.0779041350493644e-08,1.7775273087489877e-08,0.014572427403445751,-0.0064943109517973385,0.0001441890928696736,9.79999999517922
1727705072.220596,2.1797151546891784e-08,5.98831086101544e-07,0.9994009359997829,0.03460880122741822,-1.073392037938159e-08,6.221449308335938e-09,0.004932351771750116,0.005266993461613883,-0.0002404076418726886,9.800000059026114
1727705072.4814866,2.162859608923572e-08,5.951269609761762e-07,0.9993993207698486,0.034655412916459294,-1.9229463456976853e-07,-1.0685348733861826e-08,-0.015673647831940498,0.17611121573524513,-0.4960813202539577,9.800007235633752
1727705072.5007849,2.179764324705841e-08,5.949298039404751e-07,0.9993889397693356,0.03495349862844216,-2.9426752286930824e-09,-2.5073076465434298e-08,-0.020386107055473078,0.012323266576913676,-0.0009677417945775863,9.800000064186639
1727705072.5310984,2.1990473200309973e-08,5.950011180661751e-07,0.9993791661078417,0.03523183715391398,2.7456725345357766e-10,-2.1896679983398003e-08,-0.01727373158475317,-0.002055126989174424,0.0064632008611223155,9.799999650254767
1727705072.607995,2.2229970660157843e-08,5.951718896672595e-07,0.9993652035659524,0.035625691589464104,2.788623611592699e-09,-2.753064586715928e-08,-0.023007520857730623,0.027518154663023008,0.018160492859289366,9.799999287306122
1727705072.6381688,2.2451492315638627e-08,5.951255881381677e-07,0.999352612167681,0.03597716711023108,-2.8509597870506097e-09,-2.8980431564551417e-08,-0.023499093930213134,0.010423767815476173,3.0129523292901702e-05,9.799999998463592
1727705072.6688933,2.2664081138833676e-08,5.945539094891495e-07,0.9993389958920021,0.03635342197388186,-3.5657934951938943e-09,-3.10635337801608e-08,-0.025290063003042776,0.012114240332158296,-0.00492301458447226,9.80000022707868
1727705072.8701103,2.2818316374147338e-08,5.901850235279059e-07,0.9993187577575038,0.03690556047061744,-1.882973040612437e-07,-3.562348194106869e-08,-0.03435095188584406,0.1339525043408175,-0.5193125358682387,9.800010324917121
1727705072.8744047,2.315784453882928e-08,5.904700560788382e-07,0.9992996858610503,0.037418415755580414,1.4676597867439755e-08,-4.017892826432895e-08,-0.03244197199719653,0.00011226901569833641,0.020544049856630966,9.799998988217796
1727705072.901698,2.3464614043210256e-08,5.905607061998075e-07,0.9992815404823792,0.03789990568344942,6.2872342044177646e-09,-3.906834885459352e-08,-0.03208400535965361,0.012603924590748,-0.00011446388224765969,9.7999999961995
1727705073.1997995,2.3650315501774173e-08,5.876500692328863e-07,0.9992625029057881,0.03839857140719177,-5.927383716025475e-07,-4.028616331586558e-08,-0.03565073972977808,0.062195395242006395,-1.653295939388422,9.79999013893296
1727705073.2049627,2.4163582978195943e-08,5.869228914694336e-07,0.9992257856302394,0.039342462191452654,1.3096390192962002e-08,-5.8237309153344876e-08,-0.048378660444522784,0.021082135566594364,-0.0012168355540046823,9.80000005465789
1727705073.228364,2.4580604776256932e-08,5.868948450644216e-07,0.999200377480584,0.03998256672993761,1.2821607422428272e-08,-5.090818461537976e-08,-0.042031084220176665,0.010968880983337962,-0.003000589759309844,9.800000091916337
1727705073.261226,2.4986972050024854e-08,5.873275644427745e-07,0.9991748819198443,0.04061471826961194,6.299224274209412e-08,-5.0947330542058317e-08,-0.04270080095474843,0.027095636019346718,0.13940443119032464,9.800000817424237
1727705073.328436,2.552773894465338e-08,5.875932677063214e-07,0.9991395999768067,0.041473603145139926,1.2100964827063653e-08,-5.181568444003213e-08,-0.0430082942342534,0.016414779735729614,-0.00018578208886324137,9.799999995377892
1727705073.3618584,2.5926881261780492e-08,5.871996190791505e-07,0.9991105085406076,0.04216861064088889,1.0892145787802698e-08,-5.614312704611327e-08,-0.04677454697729562,0.02055958396872884,-0.005234784293395713,9.800000238082687
1727705073.6247654,2.6283543915801205e-08,5.853602243188708e-07,0.9990836230118435,0.04280086715459569,-3.89650802455372e-07,-4.8686377138382957e-08,-0.032880682756933455,-0.17848036694006691,-1.1416423853303865,9.799993388096333
1727705073.628524,2.6603893275090705e-08,5.85171436102422e-07,0.9990625323850669,0.043290372878901195,1.6613461456026828e-08,-2.8279832415991273e-08,-0.023664948524607918,0.006614400694849518,-0.0010415456388693516,9.800000028476909
1727705073.652734,2.6828928448528468e-08,5.854100630992626e-07,0.999047134293244,0.04364428324664765,1.6362741825070156e-08,-2.8115734892621064e-08,-0.023610554348122346,0.008519715881894256,-7.850056954686842e-05,9.799999996909664
1727705073.6859612,2.705337872949563e-08,5.856414519690494e-07,0.9990316153438279,0.043998085676064724,1.5876027844597805e-08,-2.8110658636916832e-08,-0.023609383389167453,0.008560733382725259,-7.047126535959875e-05,9.799999996912309
1727705073.7849653,2.727748134057012e-08,5.858655988885773e-07,0.9990159711967845,0.04435188038179816,1.540206182901779e-08,-2.8109045738190552e-08,-0.023609358183452528,0.008561616434283957,-7.032960699825553e-05,9.799999996999352
1727705073.8252797,2.7475802289350528e-08,5.840468544650482e-07,0.9989959711016776,0.04480010850739158,3.483319400722883e-10,-2.4704765507592626e-08,-0.02037048577302047,-0.0051296960487712704,-0.05309764981425936,9.800002311259167
1727705074.0429273,2.758600927866852e-08,5.824527875734151e-07,0.9989840471417435,0.045065214478160254,-3.5215107232947185e-07,-1.96679812266243e-08,-0.012903444194838172,-0.09373587160028247,-1.0412695616725083,9.799993899227575
1727705074.0455363,2.7687357907664412e-08,5.824779520750254e-07,0.9989769458493605,0.045222357978588035,2.1162587462742586e-08,-1.1949011634910103e-08,-0.010198592445861293,0.0013367744777524994,-0.00319138261279615,9.800000126270087
1727705074.085121,2.7773768751764346e-08,5.819662509690962e-07,0.9989691482685766,0.0453942816576583,-4.348945247952622e-10,-8.127552202771417e-09,-0.006682813562734153,-0.00814033924372288,-0.06642188911023465,9.80000292419619
1727705074.3611476,2.775152703391086e-08,5.802961367258986e-07,0.9989653830028249,0.04547706632668158,-3.7595984849257927e-07,-5.52085152542121e-09,-0.003687963098817382,-0.03686896240658446,-1.1100610149268253,9.799993431799074
1727705074.3643112,2.7778115203740586e-08,5.803663401850204e-07,0.9989634988376869,0.045518435711576155,2.535607724351523e-08,-2.8567413953893588e-09,-0.0026498967098854045,3.1163459455505895e-05,-0.0032021664217323407,9.800000134451702
1727705074.3988318,2.7854362714062614e-08,5.811352709478983e-07,0.9989591327416745,0.04561415472923952,2.5824429478427712e-08,-6.525698212049851e-09,-0.005853174577288303,0.004400883541574444,0.00284214304000655,9.799999882497682
1727705074.4306035,2.7931174924620195e-08,5.817075730778849e-07,0.9989558849497784,0.045685226538414336,6.578597954608375e-08,-4.9952323586890524e-09,-0.0024062489986145215,-0.04718641403999683,0.10861344991827494,9.80000068421389
1727705074.4609644,2.7959635860542428e-08,5.820894011378524e-07,0.9989550459289949,0.045703568926944826,2.3110212724269085e-08,-1.0276012262111893e-09,-0.0010833509443727684,-0.0006820532718225856,0.00018255149292219206,9.799999981411784
1727705074.4891806,2.7972421768142362e-08,5.823080583352976e-07,0.9989547668527468,0.04570966836276957,1.955004617244834e-08,1.96457394267343e-10,4.0756696363611943e-05,-0.003306879776024272,-0.008691571789004718,9.800000367490506
1727705074.745885,2.782313978204646e-08,5.792821014088294e-07,0.9989548688401199,0.04570743944132788,-6.717641272267847e-07,1.1386089724719641e-09,8.095038269794212e-05,-0.0008679809156993255,-1.9221720171166476,9.799988551286768
1727705074.7515194,2.735659080678715e-08,5.694170698446518e-07,0.9989548576241122,0.04570768457123919,-6.517759922841764e-07,9.343737109918625e-10,-6.393741811906417e-05,-0.0008637813967422554,-1.9220118898528518,9.800002321616724
1727705074.7743664,2.690517782735028e-08,5.598459304854146e-07,0.9989547514362798,0.045710005278564336,-6.323546402492163e-07,7.492823315751694e-10,-0.00019930597696095483,-0.0008772604333451816,-1.92184261877169,9.800002280720292
1727705074.8161566,2.663379207459238e-08,5.541070261999525e-07,0.9989544937424087,0.04571563661965283,7.101859749956361e-07,-7.792329894809176e-10,-0.0002751459088363875,0.0007107346610209304,1.7305810103079995,9.800024182401906
1727705074.8894212,2.7119583790955942e-08,5.645370536068592e-07,0.9989543714388407,0.0457183090556868,6.890855595949903e-07,-6.058490068690472e-10,-0.0001310846952392193,0.000751625840880297,1.7304468317836394,9.799997906318213
1727705074.9216075,2.75897818150061e-08,5.746565179654675e-07,0.9989543434279546,0.045718921095022846,6.685634583435841e-07,-4.3799574625148695e-10,3.2447101565178654e-06,0.00077488970097592,1.730295072816618,9.799997875506126
1727705075.157734,2.7614102390469296e-08,5.766141225553882e-07,0.9989621153160326,0.04554878882016927,-6.662735341381492e-07,1.5425540832809935e-08,0.0120148022554076,-0.0006963230177484965,-1.9215417190792645,9.799987716082848
1727705075.1603727,2.7341744261878664e-08,5.737609641344868e-07,0.9989739367338943,0.045288781459154326,2.791930774726811e-08,2.1101565612973236e-08,0.018037202110768563,-0.009419245757904543,-0.033664945360965155,9.800001476095165
1727705075.1833642,2.7138692409351366e-08,5.729955142955663e-07,0.998986605490775,0.04500846642232642,7.436596366450553e-09,2.241488794844574e-08,0.019095686519004652,-0.007434751062747259,-0.09387186550509201,9.800004198313578
1727705075.5088754,2.69912202800556e-08,5.735852685605423e-07,0.9989995046165632,0.044721245236817975,4.021859705990653e-08,2.2610529163123837e-08,0.01917595175551336,-0.004500372863786768,-0.00030616328604222834,9.800000003840061
