timestamp,orientation_x,orientation_y,orientation_z,orientation_w,angular_velocity_x,angular_velocity_y,angular_velocity_z,linear_acceleration_x,linear_acceleration_y,linear_acceleration_z
1727705605.066057,6.132400791909353e-07,-1.3165519695774888e-09,-1.4274793684321274e-06,0.9999999999987931,-3.8584223424838624e-08,3.995493614318591e-10,1.4912154295628505e-14,2.5686477684105e-08,1.2009713753406933e-05,9.799969111493859
1727705605.073309,6.126728151680118e-07,-1.3106789093420946e-09,-1.4274793679880382e-06,0.9999999999987934,-3.7438064266970685e-08,3.876711901342178e-10,1.2250718770555797e-14,2.5576788652330086e-08,1.199888070234387e-05,9.7999700289195
1727705605.1023955,6.121224024658752e-07,-1.304976288301206e-09,-1.4274793680990605e-06,0.9999999999987939,-3.63253939906534e-08,3.764502615284443e-10,9.805126349504728e-15,2.547060483387308e-08,1.1988364674342493e-05,9.799970919101069
1727705605.1352248,6.115883460302759e-07,-1.2994433113008435e-09,-1.4274793677659936e-06,0.9999999999987941,-3.5247004130732997e-08,3.6521251541107315e-10,9.512285375616149e-15,2.5367704470669743e-08,1.1978205333899172e-05,9.799971782806757
1727705605.1767974,6.109008724619671e-07,-1.2923222748654597e-09,-1.427479367543949e-06,0.9999999999987945,-3.3856823156433264e-08,3.50513385479481e-10,1.633717000010668e-14,2.5221497422875992e-08,1.1965056901065568e-05,9.799972894692957
1727705605.2470562,6.104031080970994e-07,-1.287166909806847e-09,-1.427479367155371e-06,0.9999999999987947,-3.285120946747777e-08,3.4031569360025393e-10,1.0870600826909468e-14,2.5126189378606575e-08,1.1955562996707561e-05,9.799973699738157
1727705605.4766302,6.099201210323276e-07,-1.2821665541867024e-09,-1.4274793669888375e-06,0.999999999998795,-3.1875779886180804e-08,3.2991956488788814e-10,1.415600012327912e-14,2.5028594179692013e-08,1.1946338721760576e-05,9.799974480893528
1727705605.4792273,6.092983776079758e-07,-1.2757310786630974e-09,-1.427479366822304e-06,0.9999999999987954,-3.062037891439017e-08,3.1692158066259544e-10,1.0417701254730159e-14,2.490909950319459e-08,1.1934488242412682e-05,9.799975486419669
1727705605.505495,6.088482015655423e-07,-1.2710710376072882e-09,-1.4274793666002594e-06,0.9999999999987956,-2.971082966071143e-08,3.0760354914043893e-10,7.865217748094353e-15,2.4824315462129677e-08,1.1925888467866818e-05,9.7999762145114
1727705605.5381973,6.084113930384487e-07,-1.2665490143766232e-09,-1.4274793665447483e-06,0.9999999999987961,-2.8828219032443134e-08,2.9857449120646947e-10,7.178222663780796e-15,2.4736198134941753e-08,1.1917542634996137e-05,9.799976920966147
1727705605.6434162,6.078490984301971e-07,-1.2607279041281985e-09,-1.4274793662116814e-06,0.9999999999987964,-2.7692005849192602e-08,2.8653400082636985e-10,1.452610432569629e-14,2.4616666760226457e-08,1.1906815440097557e-05,9.799977830371546
1727705605.6757166,6.074419704361026e-07,-1.2565091750644932e-09,-1.4274793662671925e-06,0.9999999999987967,-2.686968133642758e-08,2.784397453156907e-10,7.439191075474223e-15,2.454499744144461e-08,1.1899050845944045e-05,9.799978488829849
1727705605.8685796,6.070469371029542e-07,-1.2524153681621428e-09,-1.4274793659341256e-06,0.9999999999987967,-2.6071252640629917e-08,2.7009955217233137e-10,9.989296655759312e-15,2.4464429905640078e-08,1.1891509829542592e-05,9.799979127728191
1727705605.8715088,6.066636374856871e-07,-1.2484450219924282e-09,-1.4274793658786145e-06,0.9999999999987972,-2.529686810623322e-08,2.619250596638496e-10,1.1234313115478728e-14,2.438619788516681e-08,1.1884189594414106e-05,9.799979747657366
1727705605.9099019,6.061702301860525e-07,-1.2433321350449972e-09,-1.4274793656010587e-06,0.9999999999987974,-2.429913762159202e-08,2.5172011676364526e-10,8.442798266411503e-15,2.4291039584006246e-08,1.1874754973822152e-05,9.799980545693893
1727705606.172949,6.058129851373378e-07,-1.239634518062952e-09,-1.4274793654345252e-06,0.9999999999987976,-2.3577333390485554e-08,2.441794949396545e-10,4.570117010838338e-15,2.4224499985216198e-08,1.1867950896488012e-05,9.799981123504118
1727705606.1737583,6.054663461063681e-07,-1.2360474216889839e-09,-1.4274793652679918e-06,0.9999999999987977,-2.287737670124627e-08,2.3668273108809655e-10,9.987679161715612e-15,2.4148857137491795e-08,1.1861340410919861e-05,9.799981684143761
1727705606.2124372,6.050201092336747e-07,-1.2314298436804577e-09,-1.4274793651569695e-06,0.9999999999987981,-2.197677505863321e-08,2.2709559798935225e-10,1.5295139497801687e-14,2.4053890734141064e-08,1.1852818884175229e-05,9.79998240586644
1727705606.245312,6.046970105307355e-07,-1.2280861735640493e-09,-1.4274793651014583e-06,0.9999999999987983,-2.1323866975174212e-08,2.2067548078424025e-10,6.483395438810719e-15,2.4000556472266858e-08,1.1846650323439344e-05,9.799982928429621
1727705606.2766857,6.043835068389017e-07,-1.2248406648569536e-09,-1.4274793649349249e-06,0.9999999999987985,-2.069030750308502e-08,2.1406712818931705e-10,1.1345960325131782e-14,2.3931072903515676e-08,1.1840662801428135e-05,9.799983435470011
1727705606.3314593,6.039799441924244e-07,-1.2206624927692782e-09,-1.4274793648794137e-06,0.9999999999987987,-1.987438364543903e-08,2.0581913472248834e-10,4.337555102881801e-15,2.3860822021858295e-08,1.1832954259554918e-05,9.799984088194902
1727705606.5658445,6.036877418151014e-07,-1.2176352265924878e-09,-1.4274793647128803e-06,0.9999999999987988,-1.9284685835608778e-08,1.9987631623667406e-10,4.970092609396271e-15,2.380069511160537e-08,1.1827390625832692e-05,9.799984560779562
1727705606.566987,6.03404223482845e-07,-1.21469530393086e-09,-1.427479364601858e-06,0.9999999999987991,-1.871188394207113e-08,1.941138515696917e-10,3.151327066506388e-15,2.374847974358276e-08,1.1821990625294832e-05,9.799985019321987
1727705606.5816116,6.031291263244373e-07,-1.2118435608631414e-09,-1.4274793644908357e-06,0.9999999999987992,-1.815553910461687e-08,1.8807341731752243e-10,1.1655416155251902e-14,2.3680992062026727e-08,1.1816716117662182e-05,9.799985464283841
1727705606.626794,6.027750114456807e-07,-1.2081744431217816e-09,-1.427479364268791e-06,0.9999999999987994,-1.743943407480933e-08,1.807355905709932e-10,2.2151424785444257e-15,2.3625988746376666e-08,1.1809961021393855e-05,9.799986037042599
1727705606.7017615,6.025186100820287e-07,-1.2055224052398361e-09,-1.427479364268791e-06,0.9999999999987996,-1.6921595537317042e-08,1.7491803674151017e-10,9.942469964126118e-15,2.3563085786408306e-08,1.1805064570660428e-05,9.79998645176638
1727705606.7331574,6.022698259573169e-07,-1.2029483921742802e-09,-1.4274793641577688e-06,0.9999999999987996,-1.6419274458131227e-08,1.6980878332373723e-10,8.9604275545133e-15,2.351313439411028e-08,1.180032742255502e-05,9.79998685415159
1727705606.9527624,6.01949565238386e-07,-1.1996321407629256e-09,-1.4274793641022576e-06,0.9999999999988,-1.5772581034121604e-08,1.6334256087495381e-10,5.547994051457217e-15,2.3454347715107222e-08,1.1794210266766666e-05,9.799987372151227
1727705606.9550872,6.109911571398111e-07,-1.2063188776689972e-09,-2.4198728937330216e-07,0.999999999999784,5.967139302398275e-07,-3.441547213711584e-10,0.00011761090991412634,0.0008418889400070459,1.7309125279221218,9.799985509794036
1727705606.97643,6.197634763150447e-07,-1.2116878213191188e-09,2.626373437064622e-06,0.9999999999963589,5.789349371682109e-07,-1.89725866035614e-10,0.00022718093333904248,0.0008661268954759025,1.7307596343849427,9.799985847164622
1727705607.291671,6.310546437531964e-07,-1.2168424206380302e-09,8.875006039854583e-06,0.999999999960418,5.56047853257591e-07,8.197924965996045e-12,0.0003620679514081401,0.0008766654392325453,1.7305550613688832,9.799986281488577
1727705607.2959373,6.375232149124501e-07,-1.2388376549759487e-09,-7.65409882108603e-05,0.9999999970705353,3.5158249866383506e-07,-1.138033063475039e-08,-0.011060541897566075,0.06715641140060065,1.2143012935301465,9.799986574815907
1727705607.313439,6.365840582035997e-07,-1.3547223000535587e-09,-0.00026603244363859746,0.9999999646131712,-8.453305820512855e-08,-1.632848048965718e-08,-0.012820399023910863,0.004180348263797607,0.003563208243296004,9.799989109252385
1727705607.345921,6.353244821046524e-07,-1.4777629510953573e-09,-0.0004588470447457471,0.9999998947295318,-8.321824904544344e-08,-1.6408519712434456e-08,-0.012858335087371348,0.002829416800723471,1.3908897938017517e-06,9.79998958083771
1727705607.3852751,6.345745065336771e-07,-1.6281768640276538e-09,-0.0006632827363154403,0.9999997800277802,-5.973468271013441e-08,-9.637519106089373e-09,-0.006942115474957881,-0.01612090036737553,0.057805096930715526,9.799987276436415
1727705607.4744575,6.365116290021761e-07,-1.6952172258303485e-09,-0.000760142780972084,0.999999711091232,5.449057685675491e-07,-8.663288309870846e-09,-0.006300395050949922,0.00011026169304956269,1.7300343196474388,9.800000387623722
1727705607.4994664,6.383059581797417e-07,-1.8263690958536045e-09,-0.00104046194870977,0.9999994587191163,-7.05979280829468e-08,-2.7812860823415214e-08,-0.02263396213398726,0.034933031153916605,0.05519607375212716,9.799988260826428
1727705607.7449493,6.368244667631854e-07,-2.179689628851468e-09,-0.001624714037504582,0.9999986801510743,-5.256420752687453e-07,-4.056881635263201e-08,-0.030727043922186094,-0.016017214666563997,-1.2092614921670728,9.799982694391625
1727705607.7554624,6.352066653524216e-07,-2.4735824963078037e-09,-0.002076729299749336,0.999997843595181,-8.423509488592032e-08,-3.87186771503207e-08,-0.030063302560460147,0.007209021831698343,-0.0035683161607768144,9.799991372976663
1727705607.786404,6.339851822434542e-07,-2.7640321924792055e-09,-0.002527484303758709,0.999996805906245,-8.054308511882922e-08,-3.858664219022821e-08,-0.030048876985277702,0.007719565244831046,-0.00012778625621366927,9.799991481483998
1727705607.9010782,6.22116600392715e-07,-3.1018347488888314e-09,-0.003109936278800074,0.9999951641362845,-7.569532271937223e-07,-3.534791100278547e-08,-0.028207148641575076,-0.0031347148456558694,-1.9233364079789979,9.799994345661545
1727705607.929402,6.148711105841813e-07,-3.370535307021324e-09,-0.0037575445940251084,0.9999929404042041,-2.744475790662013e-07,-6.226883524110018e-08,-0.06080292997017941,0.28270832756585784,-0.6007810286988335,9.799995764998958
1727705607.9638348,6.03956457259813e-07,-3.872516407674432e-09,-0.00462973894195251,0.9999892827010519,-7.20242524329424e-07,-6.982040011276284e-08,-0.056842271672279926,-0.011291122731737794,-1.924995032826098,9.799994750433411
1727705608.162732,5.933666494571183e-07,-4.317854187518138e-09,-0.005444614731929531,0.999985177975188,-6.987820852729918e-07,-6.380154220737152e-08,-0.053090314023861246,-0.014014671532620145,-1.924584495708804,9.799994934165337
1727705608.1883826,5.890285515290012e-07,-5.201795330704817e-09,-0.007367429624366151,0.9999728601219049,-1.5823057547572812e-07,-1.3440803665486793e-07,-0.1235145333203524,0.25399971031423146,-0.43075082395650255,9.799993437062465
1727705608.2250657,5.867846557272358e-07,-6.420089617839258e-09,-0.00974267409813473,0.9999525390242645,-1.446374039625659e-07,-1.9576339622142673e-07,-0.1754868977151816,0.241762263809833,-0.4108369555084698,9.799993586081904
1727705608.4701152,5.862245567135428e-07,-8.117765174735844e-09,-0.012971863271410533,0.9999158618418471,1.5823541276974717e-08,-2.6549952539972243e-07,-0.23816307041806414,0.31987263377938246,0.031761363719463635,9.799993184217108
1727705608.4922748,5.856389029778436e-07,-1.1193394456349336e-08,-0.01841691833075282,0.99983039417636,1.7012728158628453e-08,-3.276659475153914e-07,-0.2791823566159462,0.018273986037652106,-0.015061084189633185,9.799993788983416
1727705608.522657,5.858728259314084e-07,-1.3675187283098434e-08,-0.022609776039645646,0.9997443663392624,1.879648757155541e-08,-3.290806612472088e-07,-0.27963047129485774,0.0019084676129444871,-0.01090505441148344,9.79999369630268
1727705608.5512354,5.860895891989439e-07,-1.6160300740766083e-08,-0.026803078049066675,0.9996407329669753,1.8227424859053944e-08,-3.2922534297337896e-07,-0.2796400498312594,0.001559355492730174,-0.010936533862857502,9.799993883256521
1727705608.6179295,5.863493531437881e-07,-1.947570114977939e-08,-0.03239342518265226,0.9994751952923053,1.7484733293692447e-08,-3.293769057769017e-07,-0.27964025783375446,0.0015517768849959786,-0.010937553490330702,9.799994124806727
1727705608.6544883,5.864784603221885e-07,-2.213446346296766e-08,-0.03724288841963419,0.9993062429815087,1.4504884985943769e-08,-3.9257650573084206e-07,-0.34542032861532146,0.30933969858296423,0.01579866845971407,9.799994267804994
1727705608.9231591,5.866244728863726e-07,-2.5331136285376485e-08,-0.042941891006334054,0.9990775715611151,1.3963749158772324e-08,-4.597227327957428e-07,-0.4021649855584791,0.31016503605461426,0.00592566189027937,9.7999944491046
1727705608.9314682,5.86800358856649e-07,-2.9090975614305822e-08,-0.049552873482172466,0.9987715017606953,2.8796110446519563e-08,-5.30014390125565e-07,-0.4541933985747264,0.12792512224863672,0.011917237415699692,9.79999462440248
1727705608.9709475,5.869194273866232e-07,-3.452726368623116e-08,-0.05871946270218137,0.9982745237156068,1.9745942831854512e-08,-5.426637832811418e-07,-0.4597673421252816,0.007106240238190453,-0.02910440638877398,9.799994864590568
1727705609.076794,5.869545628242285e-07,-3.862627683709483e-08,-0.06560422902721558,0.9978457221100858,1.9110419146686944e-08,-5.43146958904991e-07,-0.45989375685087275,0.004361360354748182,-0.029577450349245204,9.79999502056828
1727705609.1087642,5.86952473015986e-07,-4.272645976680657e-08,-0.07248625524981739,0.9973694114015688,1.851255638233363e-08,-5.43360848205321e-07,-0.45990135725022896,0.0041963099443145,-0.029602170891181234,9.799995169575183
1727705609.150236,5.867190928014982e-07,-4.854271672171992e-08,-0.08274932466207768,0.9965703935335544,1.0841144300466228e-08,-6.32777113392427e-07,-0.5475905019774772,0.31261795556131333,-0.026391123896765168,9.799995357913673
1727705609.3353355,5.864365094677892e-07,-5.3584672121744086e-08,-0.09158692015222314,0.9957970857843899,1.0618617088381308e-08,-7.107038365452846e-07,-0.6133423367914494,0.31353600478123156,-0.04432023709221574,9.799995517855772
1727705609.3380084,5.865865283512936e-07,-5.9217219914546126e-08,-0.10113185718974371,0.9948730308240372,2.9125015364349653e-08,-7.604956931384738e-07,-0.6443424137491509,0.0544551963216018,-0.03693578392043721,9.799995313398217
1727705609.3968382,5.862279710917818e-07,-6.689770033469005e-08,-0.11397969686767356,0.9934830792225929,2.2978415076791536e-08,-7.656423847413452e-07,-0.6464308229050335,0.009333332936921842,-0.05829980169892253,9.79999583975425
1727705609.6452007,5.857240666234017e-07,-7.269561667192904e-08,-0.1239341801206163,0.9922904408475788,7.92004432275024e-09,-8.034628057087336e-07,-0.6902998055283812,0.31628281490283067,-0.06790618007651665,9.799995979627056
1727705609.6585913,5.850157120684222e-07,-7.898909407242882e-08,-0.13485345866384812,0.9908655532846266,7.836858993814923e-09,-8.81493006230485e-07,-0.7560383221240178,0.3170647697559825,-0.09031487485756763,9.799996127910253
1727705609.687973,5.848596568874792e-07,-8.592106755323038e-08,-0.14649731820112483,0.9892110673458566,3.897409089487771e-08,-9.35057074214629e-07,-0.7903722243648083,0.07004510617996217,-0.049765323739068584,9.799995537941783
1727705609.7298841,5.902099230843668e-07,-9.632605748280328e-08,-0.1620460123604358,0.9867832030784289,6.572639370560304e-07,-9.350652172600824e-07,-0.7776857078050696,-0.09069067889173374,1.6662930994560976,9.799994168596523
1727705609.8019412,5.984278335945983e-07,-1.0486325485383065e-07,-0.17332433681314746,0.9848647999943512,6.131404866410852e-07,-9.255765333302466e-07,-0.754668332458318,-0.06404727162435826,1.6051555995067226,9.799993841462701
1727705609.8335931,6.051003820284883e-07,-1.1316132950413209e-07,-0.18418643800344814,0.9828913246413477,3.6371780003242674e-07,-9.069312198391382e-07,-0.7203705399781488,-0.18147949484010556,0.9549452461165704,9.799990350440568
1727705610.080854,6.084520551088985e-07,-1.2279039596939253e-07,-0.19754381894068396,0.9802940577183689,2.5214741211628823e-07,-8.324835798049444e-07,-0.6529081168506885,-0.18247218661592612,0.6982086090484574,9.799993740325124
1727705610.0951388,6.107961921878769e-07,-1.2944107904010544e-07,-0.20651002092740717,0.9784444855259659,2.2198298527077664e-07,-7.589722538647699e-07,-0.5897754482791895,-0.1905794827923411,0.6534016546372116,9.799994132788743
1727705610.1250184,6.101709090901077e-07,-1.3492926004579854e-07,-0.2147165555012393,0.9766764053632568,-3.994899075447485e-08,-7.02975445820095e-07,-0.5527717210853951,0.04368952258338242,-0.017912092333897598,9.79999613357585
1727705610.2363093,6.090653790523821e-07,-1.4184359878164707e-07,-0.22523555185523864,0.9743043396085613,1.2739301876102535e-08,-6.712233804272556e-07,-0.5271233519000537,0.027413209169917258,0.13425457852821887,9.799993239027824
1727705610.2668934,6.070794263822499e-07,-1.465414273493819e-07,-0.2328359844934914,0.9725160175156791,-6.316490431307072e-08,-6.562492650756257e-07,-0.5176049605895653,0.07072029978421042,-0.06967936363212734,9.799997158329655
1727705610.2969759,6.132108514068797e-07,-1.5311473952595175e-07,-0.2401815097018914,0.9707279960920672,3.8279568653488435e-07,-6.390381178070954e-07,-0.49305902833237986,-0.07176330805961922,1.1802848096717895,9.799992223881166
1727705610.5912337,6.154558339602466e-07,-1.5845299576904035e-07,-0.24678190074014744,0.969071046655856,1.7689305067625622e-07,-5.707841572916192e-07,-0.4317362695909806,-0.19276123754334182,0.630456342712574,9.799995481252806
1727705610.5945044,6.130637088675636e-07,-1.6316808664769787e-07,-0.25408978359157397,0.9671806355970866,-8.460272552364833e-08,-4.6447175586260193e-07,-0.35800809419182295,0.007690097953890916,-0.048304703594028185,9.799997804919297
1727705610.6405382,-6.11069237474347e-07,1.662191885766406e-07,0.2592273123458895,-0.9658163389245005,-7.620863776078468e-08,-4.5364781506624306e-07,-0.3538714382805862,0.09636428357563226,-0.01770732336996663,9.799997456188558
1727705610.9119334,-6.057328646779477e-07,1.6832190910838592e-07,0.26432335004878327,-0.9644341173032988,-7.719990692540498e-07,-4.48442524958906e-07,-0.34860198766061345,0.03473668909143354,-1.96111723876452,9.79998619659316
1727705610.9290538,-5.900849360229652e-07,1.6845305415621063e-07,0.27079116688068305,-0.9626381168118274,-7.415649856353798e-07,-4.097064382224004e-07,-0.3277454699380893,-0.00023553119216195392,-1.9580079953952612,9.800000146509669
1727705610.9539373,-5.787977001201819e-07,1.6833507124135137e-07,0.27536569580957276,-0.9613395516522487,-7.19482344574093e-07,-3.813332826887702e-07,-0.31160996237290384,-0.024249001340011924,-1.955691527692781,9.800000168176144
1727705610.9844534,-5.692022219334284e-07,1.6842926308561902e-07,0.27963605293227783,-0.9601060763791174,-4.233153013280432e-07,-3.4695296308884377e-07,-0.2822056891390001,-0.22860682657233547,-1.215661077983203,9.800004723053354
1727705611.037979,-5.636996051304856e-07,1.6981783546790159e-07,0.283838661692499,-0.9588720530541415,-2.2728006833545773e-07,-2.27066404072768e-07,-0.18078648980717854,-0.34168990209410227,-0.7079218664609911,9.799998792234398
1727705611.0682716,-5.722952094137521e-07,1.7397770047811298e-07,0.28631659861612585,-0.958135066343224,6.215430793781107e-07,-2.010619117368227e-07,-0.16824619758538795,-0.04406550357168276,1.716045930804483,9.799995711695958
1727705611.3356564,-5.806344064269986e-07,1.7800409336171304e-07,0.28862234952757987,-0.9574430214654085,6.03073037690232e-07,-1.9053467890721475e-07,-0.15672118896393986,-0.03197956855951563,1.7174451209914594,9.799995744952048
1727705611.338303,-5.825670509740293e-07,1.8018561789865594e-07,0.29129382504762974,-0.95663363284423,1.2823204882048333e-07,-2.348764697244127e-07,-0.20243911884349258,0.26061679065502563,0.4642747302189206,9.799997106554185
1727705611.3650823,-5.83882957345601e-07,1.834735800842392e-07,0.2959451468673052,-0.9552049361499941,1.1051606048557017e-07,-3.170263266197505e-07,-0.26715622980481735,0.2629590056964368,0.42007684218954855,9.799997566850358
1727705611.3971846,-5.83184881337497e-07,1.8593738683664907e-07,0.2999987957029959,-0.9539395801498003,-6.149023381095013e-08,-3.492709657246095e-07,-0.2837399019754564,0.04079259136680843,-0.08598858047387743,9.799997372814802
1727705611.430379,-5.818939366509518e-07,1.8827572472268916e-07,0.3040514387964871,-0.9526556159312828,-3.394587626929525e-08,-3.4777739914808846e-07,-0.2833727161437995,0.05347228179066779,-0.011296491908035907,9.799998231596234
1727705611.4663174,-5.819414613305098e-07,1.9195325618232509e-07,0.309429441707432,-0.9509224051436855,-2.9886097453089294e-08,-3.4705975271608053e-07,-0.2821081942913223,0.055383897289320146,0.006522113673455567,9.799997499478744
1727705611.713943,-5.835857369441673e-07,1.9524574992375938e-07,0.3134229686470716,-0.949613628126765,5.860576994297802e-07,-3.440293105599548e-07,-0.27633069766756435,-0.027591244143973466,1.7008421765723971,9.800008487368915
1727705611.7465038,-5.880027390047024e-07,1.994074308321104e-07,0.317364061284883,-0.9483037765422953,1.4454619136216755e-07,-3.488622387363872e-07,-0.2865348381249588,0.24911056222037603,0.5555802993444479,9.799993170002494
1727705611.8039165,-5.891161997089462e-07,2.0386037006123552e-07,0.3234287536659697,-0.9462525251230185,9.709728013299378e-08,-4.1863942573787875e-07,-0.34084170090061633,0.2911214840524502,0.4351040118549405,9.799997734847583
1727705612.0580947,-5.846880480665765e-07,2.0586358280839818e-07,0.3284669964102665,-0.944515448401366,-7.54327045142745e-07,-4.4798533131675123e-07,-0.3535627243950024,0.03320070529735383,-1.9619464610711412,9.799986518422523
1727705612.061837,-5.731530994014594e-07,2.0528202806311454e-07,0.3333249181902283,-0.9428120167419944,-7.319184515120399e-07,-4.191444321974837e-07,-0.3379612689543626,0.006470847574262092,-1.9595767445759738,9.800001062990257
1727705612.0915015,-5.620082213583761e-07,2.0453929732767938e-07,0.33794965104179314,-0.9411641904367017,-7.101261958298667e-07,-3.9086511559833044e-07,-0.32192658078346165,-0.018371798406542805,-1.9572121659423476,9.800001057444018
1727705612.134972,-5.480599660016763e-07,2.0342658287254225e-07,0.34372090795084936,-0.939071848921637,-6.480759729804602e-07,-3.513076524840902e-07,-0.29649259321401794,-0.07263722202388126,-1.861961875942419,9.800000937407688
1727705612.1970587,-5.439946533280451e-07,2.0471019288178556e-07,0.34813068533327923,-0.93744601227433,-1.2513457004254288e-07,-3.692704352339881e-07,-0.3273898164364928,0.22109731075085337,-0.4064561279985349,9.79999995281499
1727705612.2280278,-5.41965016544812e-07,2.070818827653876e-07,0.35317679158489546,-0.9355566011126545,2.641193456574025e-08,-4.2317417071586146e-07,-0.378782992355262,0.3215931171469597,0.010255361215102201,9.800001606004336
1727705612.4612045,-5.386560946479652e-07,2.107580097193839e-07,0.3610069779660925,-0.9325631141426592,-6.899064041947886e-08,-5.003564662781867e-07,-0.4433152167872654,0.25245039609849607,-0.2829737207391454,9.799999947738856
1727705612.4731002,-5.357501890542866e-07,2.1384839354650102e-07,0.36762521437780943,-0.9299740328381954,-1.1012645867001591e-07,-5.530272695549854e-07,-0.4886996182794088,0.2187602414273288,-0.41864909325480404,9.799999249499
1727705612.4983485,-5.340261570723288e-07,2.1777277787126607e-07,0.3746583892588444,-0.9271629260047209,3.462808098043047e-08,-5.828796831453361e-07,-0.5078245086716086,0.031878130800980196,-0.052720290020788096,9.799999329359787
1727705612.5422184,-5.325762996366901e-07,2.2349002238573854e-07,0.38407462463682174,-0.9233020538858077,4.041254732217006e-08,-5.863791381182974e-07,-0.5090165513708607,0.005747865287264667,-0.03625902205695799,9.799998914310716
1727705612.5755196,-5.313607685910451e-07,2.2792307203495762e-07,0.39171242425377645,-0.9200877005399513,5.5331951238985704e-08,-6.482919620459006e-07,-0.573527517493204,0.29537368997702723,0.03354997599925041,9.799999357250892
1727705612.6044178,-5.299770907083009e-07,2.3278657804021158e-07,0.39976014932206066,-0.9166197810508283,4.0952682029026225e-08,-6.766804398666243e-07,-0.5861062641362518,0.024269566712721985,-0.04507656717434369,9.79999897387536
1727705612.8280625,-5.284859095902377e-07,2.3768308925541742e-07,0.4078119445829782,-0.9130659438699452,3.956115689677246e-08,-6.791088214163055e-07,-0.5868627601466546,0.007850139845112434,-0.04806305806430675,9.79999902342512
1727705612.8690526,-5.26034202533323e-07,2.444115851478797e-07,0.4194956336918094,-0.9077573537643033,2.625309741054882e-08,-7.676188906009493e-07,-0.6745374171448494,0.3153685240136631,-0.06285031944006161,9.799999081765238
1727705612.8985023,-5.297845162951685e-07,2.527855984621725e-07,0.42885402298264097,-0.9033738024601221,6.772721293110162e-07,-8.017197808163761e-07,-0.6814699655772488,-0.09499699443040974,1.6998699244940332,9.799996913735248
1727705613.1770778,-5.36165935554668e-07,2.625169688191521e-07,0.437868184795152,-0.8990391830970672,6.570689605732395e-07,-7.916406685709267e-07,-0.659562634551338,-0.05682653108785508,1.7074141879201437,9.799996903104795
1727705613.1797776,-5.440037225011566e-07,2.752185138976692e-07,0.4493788843480122,-0.8933412664272058,5.966990422661913e-07,-7.778613893821941e-07,-0.6327562259433595,0.010706901215885446,1.6241296410038921,9.799996327608588
1727705613.1990001,-5.469399121366004e-07,2.832503080634162e-07,0.45752345180877463,-0.8891975545651284,3.263729472557647e-07,-7.455702572156331e-07,-0.5911013267021803,-0.1398517669327214,0.9038204276606824,9.79999791250082
1727705613.2327368,-5.477573848194543e-07,2.8977223071455236e-07,0.46485347198801663,-0.8853876267377482,1.858979146481764e-07,-6.756938444060895e-07,-0.527857901640603,-0.20992664886028772,0.5452024370413667,9.799997521751347
1727705613.312204,-5.459165150433874e-07,2.959200748250039e-07,0.4733639225276289,-0.880866957519052,-3.829009076444946e-08,-5.898665868845815e-07,-0.46777100459862625,0.04309197730190215,-0.0113121105846491,9.799998599570168
1727705613.347177,-5.473694392241076e-07,3.0172942405102465e-07,0.4793723805083744,-0.8776116001998513,2.9066199513063987e-07,-5.689210730144928e-07,-0.44270951715548473,-0.11846027356823761,0.8960514690710871,9.79999260106781
1727705613.5919979,-5.451697867206085e-07,3.052848856591896e-07,0.4850532199088625,-0.8744846332873175,-4.7164769725259436e-08,-5.436291494103417e-07,-0.4296764167440615,0.08722760280416365,-0.00015411401203071088,9.799999066570061
1727705613.5943446,-5.454722018209178e-07,3.0994498643789636e-07,0.4900997393164842,-0.8716663613570966,4.528751831743248e-08,-4.7296018499660165e-07,-0.35856542823401477,-0.29323129159912303,0.22726628245588357,9.799996195413277
1727705613.617257,-5.43359658710316e-07,3.13601524530349e-07,0.49566680925828005,-0.868512759951932,-6.348779067199065e-08,-3.96776856250201e-07,-0.31341829098366236,0.07478428255281216,-0.009983426024879977,9.799999067780641
1727705613.6569207,-5.410515658223692e-07,3.1571618163422263e-07,0.49973908952498103,-0.8661759881227085,-6.374738971242429e-08,-3.947083401429172e-07,-0.3129580188325748,0.09107754792590939,-0.013387422094856036,9.799999343031908
1727705613.6906748,-5.379400493628944e-07,3.173278061997459e-07,0.5037623443502892,-0.8638422890865614,-6.343316252668193e-08,-3.893298593554341e-07,-0.30972746917174876,0.08629517185079212,-0.02271157641670881,9.799999782157878
1727705613.727556,-5.344872604353098e-07,3.197763950846251e-07,0.5089527755794826,-0.8607944424945788,-7.313456404259414e-08,-3.659601304100446e-07,-0.2900381278549823,0.02172917625278804,-0.06463975872792978,9.800001155360457
1727705613.9329777,-5.323775580174911e-07,3.2168869473145037e-07,0.5126737413241766,-0.8585835049407158,-5.535613673558554e-08,-3.603291338050159e-07,-0.28837374047377606,0.08029339546252902,-0.011659624030139322,9.799999410955435
1727705613.9628546,-5.348025867378197e-07,3.263003366676032e-07,0.5163906198392023,-0.8563531559711168,3.5451810085607513e-08,-3.676628810069942e-07,-0.2951602201518724,0.17522192609146992,0.2738400144382168,9.799994114841034
1727705614.011295,-5.321764848753215e-07,3.291002783453548e-07,0.5215530590658439,-0.8532188503418503,1.078289122416623e-08,-3.855480879319999e-07,-0.31617319033093894,0.354564088451356,0.22403550399738367,9.800000606475566
1727705614.293458,-5.299684362967317e-07,3.3134364388758177e-07,0.525723909558276,-0.8506552597370869,-5.968417386267205e-08,-4.123080943211283e-07,-0.3277162203424196,0.1136130738459887,-0.010192755874055446,9.799999329235051
1727705614.2992396,-5.343117729897882e-07,3.3767184157218985e-07,0.5298062594114783,-0.8481186989378418,2.88218349597922e-07,-4.0650690747905124e-07,-0.32216557461289813,0.18367645783852418,0.9936160255919182,9.799992960739628
1727705614.3109243,-5.323766746762747e-07,3.402055313605458e-07,0.5340349360612981,-0.8454624102026096,-7.009022592094844e-08,-4.26526779313886e-07,-0.33462537747966054,0.1348445123072258,-0.0015688281803435374,9.799998967519501
1727705614.3510878,-5.28859811171209e-07,3.4307496636930846e-07,0.5396865782918698,-0.8418660209387334,-7.15925482909891e-08,-4.265051613382995e-07,-0.33497666983965485,0.12262272770038579,-0.015174665294167543,9.799999525345664
1727705614.4206016,-5.267178526748637e-07,3.455061206188124e-07,0.5438634061119244,-0.8391737576282632,-6.881253012841682e-08,-4.2097023618625534e-07,-0.3308507387559287,0.11881776466864813,-0.009917197746058518,9.799999299271043
1727705614.4552402,-5.241249152031243e-07,3.476123324579329e-07,0.5480203202524345,-0.8364650193463103,-6.876993513475748e-08,-4.199169544292556e-07,-0.3307624176394924,0.12194799049224535,-0.01480161511653648,9.799999553461467
1727705614.692981,-5.215915509010568e-07,3.5101964423606555e-07,0.5535510566667958,-0.8328152422132284,-6.775966236371228e-08,-4.207076644614679e-07,-0.3315122412548001,0.1247826520208675,-0.01310409438105948,9.799999496008413
1727705614.6957343,-5.261619283281412e-07,3.578616253978367e-07,0.5575743378042382,-0.8301270130659286,4.1761415119410603e-07,-4.1139539506633445e-07,-0.32069256561896,0.12545832375858906,1.3623036839471556,9.799995278239027
1727705614.7082477,-5.249637595500625e-07,3.609607961707245e-07,0.5618107249347555,-0.827265803323139,-5.2516347508131326e-08,-4.453181283865275e-07,-0.3475263682882351,0.21070916488220418,0.08190827763272045,9.799997503180254
1727705614.7465963,-5.210851832672732e-07,3.6382440128890363e-07,0.5675863032253959,-0.8233139063507459,-8.188754978103369e-08,-4.506942005708994e-07,-0.35023793024476974,0.15314223890472256,-0.01619197560242669,9.79999961273773
1727705614.777093,-5.191777834635379e-07,3.666590838454569e-07,0.5718984342455447,-0.8203244363708121,-7.37849907710795e-08,-4.5017255254708313e-07,-0.34984811466536897,0.15612065802942243,0.00676135763088387,9.799998865327263
1727705614.8076828,-5.133965738158483e-07,3.6676604102197445e-07,0.5761764735752183,-0.8173253154638168,-7.778947808670561e-07,-4.457387344922518e-07,-0.34514357994765005,0.09318457929539388,-1.9601942104240757,9.799988313945551
1727705614.8391488,-5.021980043041626e-07,3.628233600027703e-07,0.580281901901163,-0.8144156888994619,-7.54780805460842e-07,-4.176725303892966e-07,-0.3305697057100917,0.0646978510909766,-1.958080591654911,9.800002198779998
1727705615.109486,-4.87926633475707e-07,3.5750798723806357e-07,0.5854503990297244,-0.8107082275859611,-7.249503297206904e-07,-3.809993351962233e-07,-0.31041644793655826,0.02931776981644835,-1.9552519423345363,9.800002147059544
1727705615.145256,-4.777029470721901e-07,3.5348367381045875e-07,0.5890930800337684,-0.8080651849052618,-7.033203820454202e-07,-3.540958079707932e-07,-0.29479984748077304,0.00486016462419116,-1.9531490729252368,9.80000210964042
1727705615.1769521,-4.678775375642965e-07,3.49432124661235e-07,0.5925319411450874,-0.8055469562492888,-6.823100656556307e-07,-3.277406126577758e-07,-0.2787889009342174,-0.017715535692762862,-1.9510768299925645,9.800002073397364
1727705615.4341037,-4.7107488948003157e-07,3.556741321912211e-07,0.596788701367633,-0.8023984333980132,6.36060868140084e-07,-3.0216059843000205e-07,-0.2561869689817744,-0.033624379836872886,1.703688481168054,9.799997532367447
1727705615.467075,-4.76984219671259e-07,3.628327038543258e-07,0.5997478297199668,-0.8001890656250126,5.472845341459541e-07,-2.894810574946382e-07,-0.24276522780890936,0.02156410636521577,1.5177327196267345,9.799996362421938
1727705615.4959292,-4.775999086170385e-07,3.6613590477596327e-07,0.6029857094385962,-0.7977519879088177,1.3283178480894404e-07,-3.319818252762059e-07,-0.2853611545171832,0.28487068161199336,0.4246766962366836,9.79999889987742
1727705615.5691028,-4.771309266437972e-07,3.704373238281748e-07,0.6081565832274598,-0.7938170886776983,1.1436818251727038e-07,-4.122298841583048e-07,-0.3493422710726532,0.3115899342425263,0.3790711367099245,9.80000006405891
1727705615.6089075,-4.769119057766293e-07,3.744611615820095e-07,0.6126491343945161,-0.7903550076549666,1.9657865001369692e-07,-4.6794491104223414e-07,-0.3907101380385713,0.2690187575612153,0.6027614989028492,9.800000302409481
1727705615.6472778,-4.749229402683467e-07,3.7754230387671554e-07,0.6173952909107618,-0.7866530714113099,-1.6767579310585432e-08,-4.914357468079266e-07,-0.4031606131245677,0.13824265126564522,-0.0031424239617194004,9.799999360341882
1727705615.8447933,-4.740949848134011e-07,3.8166398307281126e-07,0.6222735730874442,-0.7827998468552574,1.709400617330087e-07,-5.133287846177559e-07,-0.4261213963779571,0.301988181159309,0.541374406744867,9.799997974997554
1727705615.8588321,-4.7135902674586224e-07,3.8647583092423303e-07,0.6292759891537736,-0.7771819153030829,-2.2258620425849777e-08,-5.57244015345115e-07,-0.4538606257433333,0.16474392965097612,-0.011240559296024778,9.799999444555887
1727705615.8922088,-4.684031992707024e-07,3.895157300973363e-07,0.6345605344076584,-0.7728731643496854,-2.6631231121086824e-08,-5.587249164898182e-07,-0.45469225274557806,0.1475502963109399,-0.027709920120991355,9.799999779409694
1727705615.924821,-4.656319105625639e-07,3.927036941835801e-07,0.6398408924990328,-0.7685074054852498,2.6585937198383835e-08,-5.618596655596018e-07,-0.4608254274608363,0.23122813256606806,0.12891009748986482,9.800000647643593
1727705615.9714603,-4.6214874421549205e-07,3.9727012763732664e-07,0.6469634581462285,-0.7625210054963087,1.0832126404866947e-07,-5.729842012464792e-07,-0.4689419678062846,0.211024998583707,0.35018195907601884,9.800001975267735
1727705615.9984515,-4.593941073512101e-07,4.006515338747578e-07,0.6523022902142444,-0.75795891853113,-8.602765553065096e-09,-5.750539706235867e-07,-0.46696726561780083,0.1357428479410284,0.01909552748588448,9.799999595245481
1727705616.2302868,-4.591035743729678e-07,4.0614494731041577e-07,0.6576196664916235,-0.7533501007121922,2.160783772944843e-07,-5.809649469924189e-07,-0.47576498725012806,0.2991310635923293,0.6758901874291168,9.799993956369638
1727705616.2910807,-4.56948637746327e-07,4.1244380292831056e-07,0.6651292011331585,-0.7467282944951178,6.631416298299431e-08,-6.33271699465137e-07,-0.5133369915144183,0.29788567336052185,0.2676523652289813,9.799999824205337
1727705616.3246808,-4.534221933659466e-07,4.1582239628620887e-07,0.6709058287177191,-0.741542560472568,-3.596964994244394e-08,-6.447282464934015e-07,-0.5182677650641475,0.19911788131488173,-0.031035566565932704,9.799999740799636
1727705616.5795689,-4.5161923301344346e-07,4.2084030899194346e-07,0.6767584803943938,-0.7362051067561878,2.0556325799272905e-07,-6.64176587698284e-07,-0.538050941995245,0.34222122244778963,0.6590825694092242,9.799998414216692
1727705616.582504,-4.483107774227329e-07,4.2476500971729965e-07,0.6827147535614486,-0.7306849972930531,-2.111852658974698e-08,-6.769917021511643e-07,-0.5409721052717731,0.20059185200445095,0.015763882969663294,9.799999394923285
1727705616.6201777,-4.422820450693822e-07,4.284948874801611e-07,0.690605897191568,-0.7232312871853999,-6.902612844944604e-08,-6.774735751987869e-07,-0.5427850530148431,0.19156709309662823,-0.12667498088823595,9.8000004907269
1727705616.6468484,-4.3772067147719446e-07,4.3121131451370755e-07,0.6964688167801552,-0.7175870590057161,-8.218132112684134e-08,-6.754035621365996e-07,-0.5430152941788121,0.19989774202538138,-0.16850760216596342,9.8000012589087
1727705616.7236364,-4.337341762271242e-07,4.344568919614343e-07,0.7022845735595186,-0.7118963251344597,-3.55965266535347e-08,-6.731435946768394e-07,-0.5423544410061186,0.20488924918990922,-0.04218530990565527,9.799999931387179
1727705616.7690384,-4.2844444592761566e-07,4.38746365359353e-07,0.7099178189635112,-0.7042845236960096,-2.9381387020857218e-08,-6.651884923817375e-07,-0.5360297695087203,0.1809544647399813,-0.030063645269931053,9.800000167665319
1727705616.9911253,-4.26661140383692e-07,4.441122032791426e-07,0.7155886037903045,-0.6985219754059734,1.3933761993104845e-07,-6.724758556167498e-07,-0.5446410736702764,0.3060568757607459,0.46315115781361854,9.799994298378397
1727705617.0007503,-4.263410036887024e-07,4.510093766881888e-07,0.7209789017449285,-0.6929570139902557,1.9688899544115587e-07,-6.377973921769902e-07,-0.5021742314771218,0.033805116003367816,0.6175014659462347,9.799996733731277
1727705617.0484183,-4.213632694748457e-07,4.5489316860899855e-07,0.7277700452110678,-0.685821231293619,-5.8061626338847286e-08,-6.140734737739744e-07,-0.48884217890268333,0.1771709891957973,-0.06111952068362921,9.799999901036406
1727705617.3124697,-4.216728953495568e-07,4.6198900035122957e-07,0.7327065252092458,-0.6805447435072888,5.613576405339398e-07,-6.038059845051187e-07,-0.47691129404674976,0.13942389816877032,1.666541433845392,9.799997651672529
1727705617.3231487,-4.2102137443685274e-07,4.6779536919505615e-07,0.7371795414371021,-0.6756969170317323,1.8040507132341264e-07,-5.467738235527309e-07,-0.4187740962518973,-0.10330509144929849,0.6185154208282287,9.799997176454067
1727705617.3527813,-4.189438838653324e-07,4.7116189037478685e-07,0.7409825267786787,-0.6715243070867108,-2.889594876512523e-08,-4.666620147479416e-07,-0.36185411879596074,0.03305131282178493,0.08239006863674583,9.799997121484596
1727705617.409214,-4.1516077983390975e-07,4.7374501115413705e-07,0.7457026229577881,-0.6662789191573436,-4.67164925038041e-08,-4.4353726358707847e-07,-0.3492429615329437,0.15193047807156065,0.05031294481182659,9.799997987600838
1727705617.4449856,-4.1200117455512645e-07,4.7520100358525827e-07,0.7491772860504233,-0.6623695298439735,-7.016389802552575e-08,-4.4093680883638775e-07,-0.34862489724223084,0.1737766294004322,-0.01611648316413671,9.79999989239474
1727705617.480132,-4.0950042790817435e-07,4.773095153804762e-07,0.7524996760186557,-0.658592618840678,-2.7468679798492304e-08,-4.1527452110558157e-07,-0.32522056605843386,0.0689944376535302,0.09008713265462624,9.79999770650039
1727705617.7477021,-4.056835874509288e-07,4.789869420720168e-07,0.7564093111612,-0.6540985812461639,-1.5746050294098234e-08,-3.427125179022219e-07,-0.25719702355861596,-0.2887125627288703,0.07565435392727078,9.800001594576244
1727705617.7506328,-4.034174319693671e-07,4.799222308071301e-07,0.7588109282925886,-0.6513109665154939,-6.653000505234024e-08,-3.0433880787411846e-07,-0.2438502091405561,0.11260017364344177,-0.007382475093895089,9.799999812559085
1727705617.7790563,-4.0107201932498356e-07,4.806568054407178e-07,0.7611856323652677,-0.6485340647030776,-6.537944757269535e-08,-3.030260355139048e-07,-0.2435569068297684,0.12272478970873107,-0.007972602288767398,9.79999990608673
1727705617.819495,-3.9797187218748897e-07,4.816511005067737e-07,0.764331717476657,-0.6448232514874082,-6.311275360004324e-08,-3.017690222907216e-07,-0.24234229647953712,0.1060192307285894,-0.010783475664127169,9.799999908220364
1727705617.879049,-3.956776713221849e-07,4.824001458513472e-07,0.766666756613978,-0.6420452354021592,-6.112724214254451e-08,-2.999824785269657e-07,-0.24188614781059856,0.12174622071842499,-0.007890218775150736,9.799999913265863
1727705617.9089515,-3.868318892421819e-07,4.7518303970953823e-07,0.7689008740956718,-0.6393680049975415,-7.411760447145558e-07,-2.8019706204432324e-07,-0.2277666917013281,0.045447436524925354,-1.9442819412339851,9.800002427027069
1727705618.1628826,-3.8256495914484046e-07,4.731520968170291e-07,0.7709914661300887,-0.6368454750991059,5.985474633251554e-07,-2.5821058918181446e-07,-0.21372650271788388,0.020877688288043903,1.7096906703034433,9.800023955224349
1727705618.1663537,-3.879526146484905e-07,4.835848630682941e-07,0.7735715162913896,-0.6337090098635619,5.305469037332382e-07,-2.428188131600584e-07,-0.1980916898120982,0.06210834376053898,1.5924721281669036,9.799996937204588
1727705618.1952815,-3.8725035163583627e-07,4.857659292590879e-07,0.7756841724594683,-0.6311212756637854,-3.408444727928537e-08,-2.8154307448244747e-07,-0.2305534588229082,0.1729533506376008,0.060361332683568934,9.799997226793787
1727705618.5031815,-3.850638065626596e-07,4.864512684988381e-07,0.7778087509977775,-0.6285010317182401,-6.678349142388627e-08,-2.7374585128101134e-07,-0.21089087412333604,-0.17935657800574592,-0.0822636755902372,9.799999733244334
1727705618.512506,-3.824764487884985e-07,4.872252664527995e-07,0.7803733973378475,-0.6253138098003292,-5.2069732839774037e-08,-2.497888580117612e-07,-0.20391661685705167,0.10125202715502553,-0.005778506274722108,9.799999928138599
1727705618.5440736,-3.805849361649797e-07,4.877741651926134e-07,0.78223627177521,-0.6229818738284741,-5.0607576939042863e-08,-2.4264705661013804e-07,-0.1983887217174936,0.09565004438436918,-0.005941239705432718,9.799999933742217
1727705618.5755267,-3.7875103555679237e-07,4.883505283845423e-07,0.7840742984547642,-0.6206669755209209,-4.169680861331862e-08,-2.399608671724731e-07,-0.19459482964523822,0.048261276676378514,0.008398482659599847,9.800000057594685
1727705618.6146924,-3.763447028689571e-07,4.890614057733761e-07,0.7864680657285014,-0.6176309428687076,-4.737254959959512e-08,-2.353837578396093e-07,-0.19318323715994296,0.09702330386365098,-0.005045801121648805,9.79999993477002
1727705618.6629293,-3.746479007484982e-07,4.895328009898743e-07,0.7880765283775343,-0.6155772781869335,-4.605030972266437e-08,-2.0855907290382524e-07,-0.1716062658197023,0.06973164910975399,-0.0063268979227432435,9.799999940712881
1727705618.908046,-3.7303727472249086e-07,4.899501246493547e-07,0.7896391540686157,-0.6135715169085195,-4.442050074615772e-08,-2.0410701717337422e-07,-0.16609252653507,0.01507427970734091,-0.012709232403250389,9.79999994839154
1727705618.911605,-3.7149709701314094e-07,4.903295845853447e-07,0.7911277017416721,-0.6116510112282666,-4.345729567849275e-08,-1.9481418505679586e-07,-0.16149992097081814,0.07772314255227963,-0.004026577688953587,9.79999994109129
1727705618.9439585,-3.6948009000654773e-07,4.908373922148592e-07,0.7931044227753681,-0.6090856873821389,-4.1790589353992266e-08,-1.957071946358007e-07,-0.16256644652160399,0.08521875709937642,-0.003058429041862029,9.79999994052507
1727705618.9761374,-3.67970180088034e-07,4.912371343765678e-07,0.794572686251074,-0.6071690425765921,-4.065031505179882e-08,-1.9302077843055583e-07,-0.15758687502883573,0.010840139833471688,-0.01337088437621411,9.799999947937533
1727705619.05764,-3.665178254708516e-07,4.916104918938629e-07,0.7959901684098278,-0.6053095503909697,-3.942318743153749e-08,-1.870683817395714e-07,-0.1556730823800588,0.07684066927934319,-0.0034782497939225983,9.799999946027107
1727705619.0973744,-3.6459276927465795e-07,4.921272540789875e-07,0.7978944613240954,-0.6027971703549683,-3.7913532151714454e-08,-1.9051004656214542e-07,-0.158602647986987,0.08208561140706536,-0.0030484698084455955,9.79999994656668
1727705619.3373573,-3.6303180013796796e-07,4.923966606736261e-07,0.799228464395118,-0.6010273385631035,-7.267788196719393e-08,-1.7182709256297313e-07,-0.12594217643173258,-0.37845143327794656,-0.16514407592792793,9.799999397003907
1727705619.3412464,-3.6206430780510514e-07,4.92637150986075e-07,0.8000964298911936,-0.5998714052819923,-1.7782881547013728e-08,-1.082131258266412e-07,-0.09026623127663627,-0.034457393799935496,0.03620638196853747,9.800000227411113
1727705619.3732388,-3.6089364916786705e-07,4.926775424070838e-07,0.8011534533870814,-0.5984589744715845,-3.416352129254827e-08,-1.0139051160341457e-07,-0.08800341411753079,0.04366689998415775,-0.0011008055916580572,9.799999950017598
1727705619.6496215,-3.5988425866440243e-07,4.925217677942425e-07,0.8019338911728917,-0.597412783750007,-7.983139641248594e-08,-9.974188197409759e-08,-0.08505955878980001,0.0030939508388128497,-0.13603354248152683,9.799999192553353
1727705619.6532853,-3.591924957613349e-07,4.926498932176987e-07,0.8026081763388607,-0.5965065928165728,-3.143398703937719e-08,-8.449284776040886e-08,-0.07413872163601669,0.028715205553572647,-0.00040241367962344136,9.799999886090752
1727705619.683797,-3.5848509897592805e-07,4.926756441756325e-07,0.8032668522285759,-0.5956193113981647,-1.8455461678541812e-08,-8.346580183561707e-08,-0.07312722904820644,0.025979291158178888,0.032675226948679595,9.800000161290052
1727705619.735305,-3.57522852511162e-07,4.926665640233933e-07,0.8041229950953858,-0.5944629582728057,-2.785491168619061e-08,-8.064615858954501e-08,-0.06917521216484886,-0.014662067142306168,-0.0018467574761400604,9.79999999430677
1727705619.7706754,-3.568355293035992e-07,4.926348578324488e-07,0.8047284186126492,-0.5936431354583448,-2.9096065644683048e-08,-7.653660268084722e-08,-0.06779569621697967,0.032924554795006424,-0.0007649084658479797,9.799999957534386
1727705619.811397,-3.560786344121942e-07,4.924805632532999e-07,0.8053040522897681,-0.5928620272587114,-3.171954472288893e-08,-7.080524181748989e-08,-0.06257717910155786,0.016032771110002654,-0.013160578100425471,9.800000434549979
1727705620.0865495,-3.550288323953917e-07,4.921313069150873e-07,0.8060314153235243,-0.5918727544930482,-9.92240967782269e-08,-6.781233938488952e-08,-0.05899257487134837,-0.01315522998786416,-0.20732939238875742,9.799998779438162
1727705620.090588,-3.542431837502339e-07,4.91859646754568e-07,0.8066152941786133,-0.591076786210372,-3.1128902217052764e-08,-7.889818541534195e-08,-0.07107028304525077,0.07342543526457936,-0.012760923162780274,9.800000739558152
1727705620.1157959,-3.535655314797965e-07,4.919050322495936e-07,0.8072533785199016,-0.5902050346005508,-2.403176188165702e-08,-8.226504498355137e-08,-0.07213513007437283,0.036660850363626325,-0.0006342804918189233,9.799999964523863
1727705620.117194,-3.4081708286802857e-07,4.904148407534345e-07,0.8172307108713028,-0.5763106499175841,-7.059533330480461e-09,-1.31183757158006e-07,-0.11184497409399108,0.0532204199961582,-0.002615250147409428,9.800000022766763
1727705620.1621668,-3.526277632285113e-07,4.919332994385862e-07,0.8081071449076539,-0.5890355187497893,-3.678913670024556e-08,-8.299715342536401e-08,-0.07313166979449921,0.049482012654385364,-0.03683500660660384,9.799999738921759
1727705620.1713102,-3.3905200835292696e-07,4.895906649666649e-07,0.8182054022164844,-0.574926012442824,-4.3497453137928315e-08,-1.327576575670972e-07,-0.11357739239443042,0.05688334910773919,-0.11146774869716648,9.800004949401293
1727705620.2376437,-3.519453159894296e-07,4.920055915496852e-07,0.8087557096177905,-0.5881447119206786,-2.2294795463474535e-08,-8.421684280671529e-08,-0.07349877434890656,0.0367690431297481,-0.0007979458752260845,9.7999999699559
1727705620.2627525,-3.5092878041297716e-07,4.916190220526297e-07,0.809423679427538,-0.5872250907289479,-1.3923938423119924e-07,-8.798113182472916e-08,-0.08031153681872888,0.1317977002163418,-0.3137736693311862,9.799998033498733
1727705620.4408836,-3.382063558809589e-07,4.90094568238881e-07,0.8191847477725424,-0.5735297281017624,-3.220685660994502e-09,-1.332128500719812e-07,-0.11371451502300332,0.05189879821516167,-0.0020456278469411972,9.799999988473203
1727705620.4501247,-3.3697631658574236e-07,4.896892073909278e-07,0.8198352386432727,-0.5725994948289553,-1.1695461970054207e-08,-8.054032522687691e-08,-0.06888866352872623,-0.01839478657561503,-0.037121878150272215,9.800001316205815
1727705620.4695745,-3.3635708381586693e-07,4.901205049388576e-07,0.8206434069143658,-0.5714406344386347,-8.924839213233152e-10,-8.18265831105179e-08,-0.07200347595508962,0.0355352386773224,-4.420616612830129e-05,9.799999964755147
1727705620.490413,-3.501517410760112e-07,4.917012341169261e-07,0.8101506624533521,-0.5862217192547801,-1.999276297866709e-08,-9.589723708263131e-08,-0.0828768842684669,0.042822215801146625,-0.0015526585960982258,9.800000007449526
1727705620.4941776,-3.475143640115545e-07,4.898216565251561e-07,0.8112744995440698,-0.584665448260078,-3.974986819947587e-08,-1.1240303946605255e-07,-0.09636146353026971,0.04400891335557806,-0.07358470933826433,9.800003215403713
1727705620.5013523,-3.3586757712064444e-07,4.904488902260344e-07,0.8212607945623573,-0.5705529837924364,-9.487863463466473e-10,-8.220263082450707e-08,-0.07209249251501192,0.032447166889747796,-0.0006961499737036656,9.799999975684498
1727705620.5176473,-3.4672693250283684e-07,4.901257399660177e-07,0.8121182723143933,-0.5834928549457348,-1.3145757949318589e-08,-1.122806060762257e-07,-0.09630159493980868,0.045956636521156696,-0.0014654891721452693,9.799999977974078
1727705620.5861347,-3.3557570610348427e-07,4.910395073330538e-07,0.8218539784295598,-0.5696981991714132,-4.3246489486718495e-10,-7.87380211602685e-08,-0.06903809325972829,0.028768674686183694,0.0021827557400396786,9.799999834511393
1727705620.6281238,-3.340456556680923e-07,4.901672368841402e-07,0.822656294594839,-0.5685390232544618,-2.610657773676017e-07,-8.220293022341106e-08,-0.07116272713787121,0.009439197600479806,-0.7247799178977912,9.79999675858946
1727705620.8081462,-3.459540341697552e-07,4.904512021482925e-07,0.8129602840662831,-0.5823191363251837,-1.2698940472552272e-08,-1.1234159377238245e-07,-0.0963002915902349,0.04600136636651996,-0.0012577256717890529,9.799999969866324
1727705620.8119984,-3.439815437419627e-07,4.896370363039669e-07,0.8141352259186488,-0.5806753257355031,-9.83830947825278e-09,-1.1842359208211204e-07,-0.10149436578054623,0.048679564676710495,-0.0033903016095736625,9.800000067192107
1727705620.840579,-3.4321173209483354e-07,4.900493257696796e-07,0.8150276926807857,-0.579422005245811,-5.465659770197526e-09,-1.2029020868692613e-07,-0.1046814128304861,0.0918307658349193,0.013881464611312459,9.800000023469996
1727705620.8476973,-3.334647572329086e-07,4.903480945973428e-07,0.8232578882261422,-0.5676675518937832,1.243895741245448e-09,-8.041123449898956e-08,-0.07052889332135905,0.03061653221680237,-0.002767195830198931,9.80000006873975
1727705620.8492863,-3.309723986671352e-07,4.877701818877909e-07,0.8238893684426081,-0.5667506581971413,-1.8945684513063088e-08,-8.581733956653576e-08,-0.07593833054877626,0.044508971869365865,-0.07599701413424206,9.800003442113233
1727705620.866906,-3.424041543148627e-07,4.904744527758975e-07,0.8159457447882474,-0.5781284818806233,-8.58899299638778e-09,-1.23971658547058e-07,-0.1058735098617097,0.050580023900899,-0.0013573628455824376,9.79999997089264
1727705620.8886986,-3.303725340340088e-07,4.883776366436528e-07,0.8247527940634884,-0.5654934382325946,8.773589246384035e-09,-8.702500543424599e-08,-0.076289589713881,0.032188849890178825,-0.0008116273549567353,9.799999979176647
1727705621.1662092,-3.2992660355812806e-07,4.888445173932378e-07,0.8253993885655302,-0.5645492444023825,8.513794785936548e-09,-8.713925587395544e-08,-0.07629165951048973,0.032116775066917666,-0.0007921003804613636,9.799999978516944
1727705621.1717067,-3.2857685596067784e-07,4.87579723779728e-07,0.8256294895556894,-0.5642126779643168,-1.0342598853814594e-07,-1.6118676710363036e-08,-0.009669475576004326,-0.19295960738483423,-0.3457362160788198,9.800001861788251
1727705621.1865454,-3.2864262621015936e-07,4.876450983421775e-07,0.8256700073943194,-0.5641533824139658,1.1966636636065937e-08,3.647168136566528e-11,-0.004205834842071094,-0.0025265539084409257,-0.001507291581453074,9.800000020692694
1727705621.2280595,-3.288216371114226e-07,4.878134245324716e-07,0.8257162315886488,-0.5640857247712396,1.1817546992775499e-08,1.8829713056711384e-10,-0.0040862127161185495,0.0016426606497492392,3.847613016860234e-06,9.799999979180889
1727705621.2584608,-3.289506457444144e-07,4.879359666421079e-07,0.8257507993150519,-0.5640351207417907,1.1466435668065854e-08,4.052558739670014e-11,-0.004085506793079836,0.0016672611417965265,7.89164425619247e-06,9.79999997977953
1727705621.300011,-3.2881217285981116e-07,4.876860208753304e-07,0.8257093677463614,-0.564095772024182,-7.943521614030354e-08,1.4036121808368543e-08,0.022861328796603696,-0.37587725215253937,-0.30320087060940387,9.799998515454975
1727705621.5678394,-3.290738812251586e-07,4.87098588153535e-07,0.8252324804518335,-0.5647931950784895,1.2838780643590317e-08,5.785424558705775e-08,0.04416973965425845,-0.02226933585148913,-0.0016966547514412561,9.80000001928044
1727705621.5715094,-3.23757972352519e-07,4.784865192506803e-07,0.8248746795965511,-0.5653156312717289,-6.670332203269695e-07,5.505162807354334e-08,0.04125256046177833,-0.004258311461722294,-1.9209343136119532,9.800002336416687
1727705621.5780165,-3.185755496804003e-07,4.701474181447628e-07,0.8245405017023698,-0.565802934821022,-6.471781745315531e-07,5.058876171426442e-08,0.038477354791498296,-0.0015681133062682463,-1.920801264653956,9.800002295117698
1727705621.6174502,-3.1186985352236696e-07,4.594373351231373e-07,0.8241297355589275,-0.5664010760647119,-6.216164298244885e-07,4.514307160675875e-08,0.03499225539559347,0.0014833895589047817,-1.9206289546690718,9.800002241935262
1727705621.6893387,-3.0699097268979256e-07,4.516997338933316e-07,0.8238463374195313,-0.5668132076091077,-6.031058665063505e-07,4.1412200431022825e-08,0.03253524674818332,0.0034038547274266554,-1.9205027009409437,9.800002203449802
1727705621.722865,-3.059687190637743e-07,4.4963534299628305e-07,0.8235826547289506,-0.5671962718753695,7.323968351024213e-07,3.6660778929062955e-08,0.030293752073786512,0.007856156545402886,1.7318273907334167,9.80002419832209
1727705621.7540734,-3.1232089624739794e-07,4.5833326895946307e-07,0.8233358167296039,-0.5675545197510883,7.106261712480534e-07,3.51464314897172e-08,0.028376369575449423,0.005771449507915507,1.7316080851094409,9.79999792352256
1727705621.9502127,-3.203653293020787e-07,4.69334321670823e-07,0.8230243413869794,-0.5680061033864036,6.355931882970241e-07,3.426808379680761e-08,0.028145635381292597,-0.025965220601129428,1.5971200743817506,9.79999710686349
1727705621.9748409,-3.226622284861775e-07,4.7190708702913557e-07,0.8225129960966838,-0.5687463153742005,1.4023963202945825e-07,8.143776133890284e-08,0.07349097708878971,-0.17131006442840346,0.23669521786805228,9.799997770829433
1727705622.0223484,-3.227200732348008e-07,4.7070297758604997e-07,0.8218374198616457,-0.5697220860339077,5.346127410272602e-09,9.686601012764362e-08,0.08086182970063711,-0.03378474916439638,-0.11983453147084289,9.8000052556148
1727705622.284442,-3.237155225730543e-07,4.70350283952126e-07,0.8209246977684876,-0.5710364617022199,4.5274827057431654e-08,9.56756066864914e-08,0.07946343939875636,-0.018718429605988237,-0.006690560749811151,9.800000251194673
1727705622.3041017,-3.2472911659687425e-07,4.7048872488661395e-07,0.8202437385367712,-0.5720141688724973,4.6063899162451475e-08,9.553309570297575e-08,0.07942801065377211,-0.01996100688134756,-0.000844960592587309,9.79999998106079
1727705622.3345177,-3.2573089043813705e-07,4.706113683103001e-07,0.81956165309411,-0.5729910093337609,4.47027445778747e-08,9.549793064539737e-08,0.07942725018092621,-0.019987935471357184,-0.0008320646452996104,9.799999980902552
1727705622.375654,-3.2704740891186435e-07,4.707487726994608e-07,0.8186503974779301,-0.5742921962806897,4.2945082342943124e-08,9.545543458563089e-08,0.07942723358818968,-0.019988525508430218,-0.0008320881156803883,9.79999998172802
1727705622.4454951,-3.2875241145115636e-07,4.7188666417027575e-07,0.8179235913435021,-0.5753268625081025,2.9827617454122196e-07,1.0234112476164565e-07,0.09403137174752421,-0.2231829614992699,0.6819974876593975,9.800004236526465
1727705622.4771407,-3.2997592885226925e-07,4.7204130199022195e-07,0.8170602556018687,-0.5765522861939558,3.8540988995760164e-08,1.2037229113591055e-07,0.10063601097960294,-0.03131208866455809,0.0003839469351368748,9.79999987493413
1727705622.725062,-3.307070406362317e-07,4.713992243943824e-07,0.8161159820619888,-0.577888141271876,2.1498202236461585e-08,1.3499553168650852e-07,0.11474285527876606,-0.07137282392714463,-0.05289592770443669,9.800002033840688
1727705622.748243,-3.321394615100134e-07,4.7094472828509033e-07,0.8147640119612656,-0.5797927257326108,3.0455985100819364e-08,1.4056387148157883e-07,0.11810553267602136,-0.03691065168360552,-0.021156843951524344,9.800000812684765
1727705622.7803626,-3.333405859331464e-07,4.707473356644281e-07,0.8137341253911173,-0.581237277859585,3.6036643246303115e-08,1.410832215903253e-07,0.1182926257527566,-0.030221496407970647,-0.0019428686435017926,9.799999988366348
1727705622.8644488,-3.34810472731705e-07,4.7091560357154964e-07,0.8126872743454036,-0.5827000893398805,4.5801451320387925e-08,1.4400900696611032e-07,0.12103024912350413,-0.03914210937590348,0.02907917330004259,9.799998540375837
1727705622.9050326,-3.364112404961942e-07,4.7058823419540243e-07,0.8112719906709497,-0.5846689295254707,3.272675951025463e-08,1.4468990326815324e-07,0.12125748418524496,-0.031192753322074416,-0.0019596628178477783,9.79999998682
1727705622.9360113,-3.3708539008133143e-07,4.695566656456864e-07,0.8101524832122237,-0.5862192029818994,3.044699004226153e-08,1.523629043192361e-07,0.1282242866447918,-0.03774878272733287,-0.011884413898411772,9.800000390663863
1727705623.1626184,-3.379644294571758e-07,4.686982195812995e-07,0.8089225750728746,-0.587915187367307,1.735833424424744e-08,1.7226260570426124e-07,0.14740762065475294,-0.09369878113999247,-0.05732635287461478,9.800002093439705
1727705623.1760092,-3.398086898136205e-07,4.6815826283457926e-07,0.8071687396925076,-0.5903207820015101,3.302591410138847e-08,1.7690106527271716e-07,0.14899587052782276,-0.037185528182731194,-0.0030528095530749197,9.799999990364515
1727705623.2083287,-3.411903576234608e-07,4.677418960193378e-07,0.805847320423722,-0.5921233791749587,3.205142315016318e-08,1.7693668531316697e-07,0.14900520694038805,-0.03685426327405912,-0.0029854563539263557,9.799999989755888
1727705623.4754086,-3.409652883622939e-07,4.651135686231636e-07,0.804469110532091,-0.5939944866742229,-4.9996945676097027e-08,1.8631286992152945e-07,0.15978489831438003,-0.09023948862240491,-0.24861837095063105,9.800007789532817
1727705623.4896133,-3.4236435506131955e-07,4.6456066940813273e-07,0.803029160191122,-0.5959397351095227,1.983648948308181e-08,1.907213001059534e-07,0.16206891470146653,-0.050490157705387194,-0.04964488883514059,9.79999976162704
1727705623.5303595,-3.443427398855987e-07,4.6393930807955364e-07,0.8010893807942066,-0.5985447384936409,3.459717387413511e-08,1.917782430620161e-07,0.1624268558808836,-0.037587539959810894,-0.0035885565209860327,9.79999999142785
1727705623.5620031,-3.46310591239051e-07,4.6410468236226363e-07,0.799609056430038,-0.6005209046109294,5.231062311221558e-08,1.9587595836298197e-07,0.1660971910975038,-0.049837398771994855,0.05050175351173136,9.79999748477381
1727705623.600781,-3.478034130017119e-07,4.6358425847096404e-07,0.7981079806342207,-0.6025144406963456,3.107596745240962e-08,1.9686000781526487e-07,0.16639720287053317,-0.039416230881992836,-0.003613313889978447,9.799999985039987
1727705623.6490517,-3.4921653315485686e-07,4.6210443409244484e-07,0.796080287837077,-0.6051910238238016,3.1225416491013436e-08,1.9846726695705568e-07,0.1680453948812676,-0.03903798774526664,-0.005135461336875601,9.800000049548986
1727705623.8582947,-3.489952167533368e-07,4.5928547284141396e-07,0.7944948549148666,-0.6072708831431589,-7.42676893369403e-08,2.082971330342401e-07,0.1804023334578839,-0.12004459665964114,-0.3197615669809106,9.80000740364677
1727705623.8848348,-3.505587223357828e-07,4.5864987216192147e-07,0.7928307609618286,-0.6094418630783043,3.5485034661156286e-08,2.1441840287252555e-07,0.18259242675825232,-0.040711142413706936,-0.0056224435870598135,9.800000031896777
1727705623.9176137,-3.525969838440971e-07,4.5768322096519265e-07,0.7905665900021122,-0.6123760827890803,3.475903183409627e-08,2.1799933905660346e-07,0.1855811902268497,-0.040032063523776105,-0.005054938978849864,9.800000006628977
1727705623.987591,-3.537065693342119e-07,4.563746910005115e-07,0.7888125324833131,-0.614633865481661,1.3954035085315377e-08,2.2648447819329048e-07,0.19402780803415826,-0.06579526526352893,-0.06825335619557533,9.800002683236903
1727705624.0205424,-3.553858117867433e-07,4.55701312489016e-07,0.787014636828894,-0.6169343250433954,3.463413600126389e-08,2.285278178456381e-07,0.19471906296780697,-0.0408799671742076,-0.005391941653940064,9.800000001814688
1727705624.0477924,-3.5278923788272565e-07,4.4959446648547587e-07,0.7852501892360475,-0.619178601297255,-6.540389522599606e-07,2.2039844404447112e-07,0.185939835390157,0.020078396611913338,-1.921683456522834,9.80000232062162
1727705624.2568696,-3.4652178738389326e-07,4.3828048143969727e-07,0.7830729170048336,-0.6219299049356195,-6.282477701238266e-07,1.9524357918089967e-07,0.16927367007599514,0.032653192659991864,-1.9206510803601957,9.800002266065999
1727705624.264948,-3.4225418271377657e-07,4.3064686086857765e-07,0.7815817253019494,-0.6238028588213791,-4.877713881285119e-07,1.7552083362374959e-07,0.1521364769714595,0.11708807990614545,-1.5717533835139799,9.80000425360038
1727705624.2984757,-3.4163649790762506e-07,4.2808929970350614e-07,0.7805786868240657,-0.62505752829297,-1.2982672694717921e-07,1.0722600929706935e-07,0.0835614571999107,0.32589050567504746,-0.5711976148379643,9.800000910626427
1727705624.5876746,-3.410227067512909e-07,4.2640818938867665e-07,0.7802128262077987,-0.6255141451802196,1.579004600312873e-08,1.0881866556474853e-08,0.004168762459140653,0.1517881795424814,-0.20279223242294248,9.800002750521871
1727705624.5996954,-3.418796008793604e-07,4.2747128805797196e-07,0.7802079259789296,-0.6255202572573948,9.427172394992283e-08,-6.945768739285655e-10,8.907562924659736e-05,0.0032465698026251377,-0.0001503117128131263,9.800000003433478
1727705624.6296413,-3.4273792856027403e-07,4.285635082610298e-07,0.780207821254989,-0.6255203878789579,9.168616826086058e-08,-9.130367785434409e-10,1.90383184018098e-06,6.940810877662726e-05,1.9014796679522728e-05,9.79999997764564
1727705624.6749318,-3.4384260819012504e-07,4.299699921132867e-07,0.7802078189813284,-0.6255203907148793,8.807426371226729e-08,-8.823443287038867e-10,1.1292994304192726e-08,4.2530342764043994e-07,1.0871556195494109e-05,9.79999997848948
1727705624.7163808,-3.4464245430712907e-07,4.309883702219835e-07,0.7802078189680507,-0.6255203907314395,8.545810388894918e-08,-8.560635968757884e-10,2.4135407923074455e-10,2.2719203290275304e-08,1.0838960557793832e-05,9.799999979110659
1727705624.7469618,-3.45418544298931e-07,4.319765052090943e-07,0.780207818967767,-0.6255203907317924,8.292034244912686e-08,-8.309222586914284e-10,5.1403545618385764e-12,1.4344032155158557e-08,1.0861703901110383e-05,9.799999979730575
1727705624.9806406,-3.461837537492782e-07,4.3292782668996636e-07,0.7802948050706059,-0.6254118780288058,8.079739186028543e-08,-1.3380242335968064e-08,-0.027814807805386282,0.38946744352175916,0.05418372469092655,9.799999963044563
1727705624.990483,-3.4660158715164064e-07,4.346105766094715e-07,0.7814703906500111,-0.6239423278933796,7.749274215371044e-08,-1.3222689082487187e-07,-0.13260000656516707,0.3539701024184773,0.04570259618797119,9.79999992856559
1727705625.0195017,-3.4632451174664255e-07,4.363190800734627e-07,0.783019734178439,-0.6219968616374333,7.630067452201967e-08,-1.9087065424564538e-07,-0.17163825584423711,0.044336034666637776,0.003218307362151723,9.799999916151453
1727705625.1153376,-3.4586789182765144e-07,4.381048125341384e-07,0.784628279326287,-0.6199665017411494,7.359835920263267e-08,-1.9454954975986776e-07,-0.17281309810138093,0.0015285409386366123,-0.0040349406411257374,9.799999986168785
1727705625.1549525,-3.452118167546321e-07,4.4044926092685206e-07,0.786766641808625,-0.6172505579882983,7.068222886614957e-08,-1.9505540652500832e-07,-0.17283861126946773,0.0005988514465402247,-0.004170946873678771,9.79999998744587
1727705625.184633,-3.4465283228904603e-07,4.4221292753141314e-07,0.7885225757523938,-0.6150058109713239,6.901272746255565e-08,-2.2376149421569626e-07,-0.20171161259552856,0.08863253963921697,0.006742873811179533,9.799999952139961
1727705625.392547,-3.439111903203401e-07,4.440674239641979e-07,0.7904690289335065,-0.6125020116673935,6.574897605784366e-08,-2.4150407016274185e-07,-0.2268893726175293,0.32241911248993477,0.03350369865974736,9.79999995100307
1727705625.3975003,-3.42376249922347e-07,4.4686888220104724e-07,0.7939132209035709,-0.6080310828191278,6.318108478573233e-08,-3.425049362813412e-07,-0.31507710950672774,0.3089247559676359,0.02044217404555725,9.799999960895578
1727705625.4274,-3.4075264804896634e-07,4.4941808990471373e-07,0.7970537340369195,-0.6039083912792449,6.82570670056725e-08,-3.9653729963428254e-07,-0.3518494432810213,0.06091553976615163,-0.0007794639714207904,9.799999794092244
1727705625.7020845,-3.389104837344802e-07,4.5198626489827464e-07,0.8003142053222317,-0.599580830880312,5.919607152722547e-08,-4.128909494664803e-07,-0.37605453777914216,0.3098437915288795,0.010654336034425954,9.799999913447149
1727705625.7059543,-3.36713180726675e-07,4.5470505390939207e-07,0.8040748010332511,-0.5945281442816793,5.75247504654612e-08,-4.882863093328636e-07,-0.4418278751940092,0.3107195009952851,-0.0018935889600396683,9.799999987476202
1727705625.7384617,-3.3905224441437026e-07,4.666382036911102e-07,0.8093322021470455,-0.5873511612038246,7.002630998580587e-07,-5.068747560536588e-07,-0.43365658911982463,-0.09065028404923949,1.7661720738543094,9.799997819431242
1727705625.7667303,-3.400229388448729e-07,4.744698066368574e-07,0.8129171503563752,-0.5823793494416931,2.029348480558607e-08,-4.743960202451394e-07,-0.38141694508153023,-0.4745104636720568,-0.10950501375997598,9.799987252078916
1727705625.8103042,-3.3735192282306554e-07,4.7611328035159774e-07,0.8156223505962814,-0.5785846361660981,-1.4072672021312908e-08,-3.480758172720669e-07,-0.2752984232011759,-0.46666299288058516,-0.18458788353633082,9.800000217805188
1727705625.85302,-3.313441318828941e-07,4.7261816446292454e-07,0.8181651154756295,-0.5749833422095084,-2.30339238689519e-07,-2.3886046035100816e-07,-0.1912368728966746,-0.3264548346329512,-0.7813421542895413,9.800003217484234
1727705626.072949,-3.308885222733396e-07,4.7455230652377524e-07,0.8194475422047354,-0.5731541900521042,6.619644312717376e-07,-1.6314895619345941e-07,-0.13848012164481513,-0.04310815995103501,1.7196932901677868,9.800014923179914
1727705626.0749433,-3.320378120658801e-07,4.784914670770205e-07,0.8208558397870352,-0.5711354395300487,1.899829056815692e-07,-2.0058514996151062e-07,-0.18041917451166525,0.24402388695696248,0.48186899430232505,9.79999882935696
1727705626.1096177,-3.345232834547481e-07,4.860689888872171e-07,0.8231141536387172,-0.5678759460298259,2.2257954227336898e-07,-2.393986901992193e-07,-0.20878135457330693,0.21429697674144912,0.6057960342839197,9.799994232203144
1727705626.1995533,-3.354317991029847e-07,4.909733546873343e-07,0.8250894028174707,-0.5650021923479199,5.809118567702258e-07,-2.8405670134748533e-07,-0.23265675000520933,-0.07932116120177224,1.5701054816099185,9.80000643218217
1727705626.2320564,-3.342256029334168e-07,4.92874800488936e-07,0.8269665802119267,-0.562251078444707,1.6976266692388122e-09,-2.664644273875737e-07,-0.22077412267187424,0.02285406202829497,0.00046260126288625534,9.799999625618284
1727705626.2620919,-3.336278494938673e-07,4.954798222912919e-07,0.8286155659131973,-0.5598180453736686,1.993498846543138e-07,-2.2320621335169853e-07,-0.17202813023571006,-0.29612329539965443,0.5135283424840177,9.800000058517126
1727705626.472129,-3.3475589788546935e-07,5.003952855874349e-07,0.8301301203185559,-0.557569711641098,6.142756836672157e-07,-1.5691759566789095e-07,-0.12748745306238005,-0.021721885709676293,1.720755042387183,9.80000987970627
1727705626.4765484,-3.365098872334601e-07,5.050032466373304e-07,0.8310113519390011,-0.5562554565558394,1.3399638506536463e-07,-1.1956562759383778e-07,-0.08878713521978975,-0.20073016980413325,0.40629294930595294,9.799997174775266
1727705626.5051503,-3.3658483074708863e-07,5.064671491558261e-07,0.8316076178114529,-0.5553636376263671,1.0115729720451297e-08,-8.002521299511268e-08,-0.06273576238440778,-0.05123186828045243,0.09566820303364021,9.799995275924708
1727705626.8181689,-3.3694594628726383e-07,5.083844921485239e-07,0.8322619599915507,-0.5543825664202027,4.3578841681920975e-07,-7.022501590477691e-08,-0.052391703776782504,-0.10643539167901342,1.2666403375303428,9.80000757667449
1727705626.8214686,-3.385515273771291e-07,5.114099392010392e-07,0.8324168428627452,-0.5541499794442327,1.7573250313066378e-07,-1.3927953956965892e-08,-0.0014639122031020124,-0.2578133985072916,0.5525525832249054,9.799996941486466
1727705626.8346956,-3.395278250126137e-07,5.125629920044048e-07,0.8321388092050137,-0.55456740096627,9.38151248273062e-09,5.204181152821419e-08,0.04496704974110638,-0.11634134218728324,0.12493945895238438,9.799997259251677
1727705626.8824894,-3.399722442571561e-07,5.121582189133324e-07,0.8316361829030015,-0.5553208615621672,-4.099146306901686e-08,5.7677382353350835e-08,0.045317040748384003,-0.01212939233028354,0.0007218644316788346,9.79999996249623
1727705626.9357953,-3.4000519270744956e-07,5.114040099800941e-07,0.8312584935918232,-0.5558860646131323,-4.0120952342636994e-08,5.756991193699762e-08,0.04531901585881255,-0.012060935762994676,-0.00025513479032426595,9.80000000679306
1727705626.9659672,-3.4045945509802797e-07,5.112867141842279e-07,0.8308573988757527,-0.5564853841144806,1.1031424218611677e-07,6.203674282807413e-08,0.053592381795411904,-0.12733124340001728,0.39744398229713446,9.80000244992608
1727705627.1932938,-3.4064338178885994e-07,5.105912034036835e-07,0.830386521302573,-0.5571877827435152,-3.898094038708404e-08,7.159591147931647e-08,0.05670651205612771,-0.017784901795205088,0.0003875129947975303,9.79999995623144
1727705627.21283,-3.3319354388462196e-07,4.982085262479217e-07,0.829789795011296,-0.558076066584791,-7.107042827451377e-07,6.543693311822505e-08,0.05162895906399162,0.003518870520737033,-1.9201708747535535,9.80000244214221
1727705627.2408633,-3.277611637349938e-07,4.892690565988446e-07,0.8293774703053662,-0.5586886536788842,-6.895435991058086e-07,5.971250727231975e-08,0.04804966021877405,0.006295224303980674,-1.9200400034713077,9.800002397721444
1727705627.2713768,-3.224602647192025e-07,4.806158546827079e-07,0.8289936543566041,-0.5592580093625374,-6.690110988288107e-07,5.4432603410796935e-08,0.04466041360128285,0.008655412599339872,-1.9199149774695128,9.800002354601745
1727705627.3620856,-3.162244826588203e-07,4.704331632810683e-07,0.8285515987535604,-0.5599127148070471,-4.1843680444077316e-07,4.3002425856227937e-08,0.030462928950856078,0.15158953188978855,-1.2791726179671752,9.800006009799723
1727705627.393492,-3.1606470639562004e-07,4.7000814159248964e-07,0.8286990489872251,-0.5596944579030132,5.631888806684708e-08,-3.300960511955612e-08,-0.04517372547286136,0.38359144355850894,0.05312094264063713,9.799999925315072
1727705627.6364915,-3.158929377325752e-07,4.707928877870837e-07,0.8294922583009892,-0.5585182122531043,-1.236620835638284e-10,-1.1900001006803583e-07,-0.11381585655532371,0.22173861348462934,-0.12296175002217893,9.79999903605631
1727705627.6416676,-3.223883846207398e-07,4.827380439176081e-07,0.8306705008279209,-0.5567643299044526,6.580627788622868e-07,-1.2057956394749035e-07,-0.10183196342646905,-0.029557618160681795,1.723544075828821,9.799997866382698
1727705627.6841018,-3.246578868583714e-07,4.877985827612939e-07,0.8316333104581635,-0.555325163247671,1.9507667797099922e-07,-1.4455045488427493e-07,-0.13207614328744216,0.2524521281333975,0.5200161236062524,9.799998372669332
1727705627.9619522,-3.246150791423559e-07,4.901238879354693e-07,0.8329781476708187,-0.5533058878256639,3.479127363736879e-08,-1.9900323621296183e-07,-0.17014660137046467,0.08140655221229322,0.0634894556684158,9.799997333743292
1727705627.964092,-3.1795076753596003e-07,4.827449940149181e-07,0.8343307688446682,-0.5512641546107733,-6.115554439718492e-07,-1.8888890206395097e-07,-0.1611530814747801,-0.004523066752664463,-1.7753077208681363,9.800003291600904
1727705628.0028343,-3.1366879500145065e-07,4.800169397274198e-07,0.8364384068447382,-0.5480609378113965,-1.6786662047202182e-07,-2.3057224833262834e-07,-0.20792962665320633,0.20306886759266796,-0.5574660920008275,9.800005495753522
1727705628.0344691,-3.111702799149692e-07,4.797017044886845e-07,0.8384020890928352,-0.5450522332808505,-1.0114478266955174e-07,-2.830171374487188e-07,-0.2552777887096552,0.22496674394105165,-0.3850728110695234,9.80000054395334
1727705628.0632353,-3.0870614133765935e-07,4.801707152878117e-07,0.8407097237782547,-0.5414860666207071,2.5885406650753245e-09,-3.311235192033875e-07,-0.2926827406343514,0.09452101676365955,-0.12829304526864205,9.800002053136637
1727705628.1234562,-3.0632298259655945e-07,4.828138294617608e-07,0.8440136201607816,-0.5363217401735313,4.840886938335161e-08,-3.646679733329975e-07,-0.32213160699467697,0.10894296095239639,0.000536365479056629,9.799999973119718
1727705628.345123,-3.0433822913756034e-07,4.849120330481302e-07,0.8466165159605845,-0.5322034149669027,4.7031033019474055e-08,-3.7346585688176873e-07,-0.3251119638884296,0.004469685056387979,-0.014469141690465289,9.80000000647128
1727705628.347439,-3.021532442824424e-07,4.870336308661761e-07,0.8495489936559247,-0.5275097225434588,4.223002294788169e-08,-4.352429789822558e-07,-0.3908893988505299,0.3099752217437829,0.007986532673628515,9.799999980629606
1727705628.3817215,-2.9854192053334764e-07,4.90440843345858e-07,0.8541588724080844,-0.5200121351336138,5.2080061156239525e-08,-5.254444431556869e-07,-0.4599117545819687,0.10329341994821226,-0.0028933745080049595,9.7999996985461
1727705628.4128993,-2.954730697701094e-07,4.931208029900867e-07,0.8577540151402584,-0.5140603559023341,4.626904481898757e-08,-5.354313344408129e-07,-0.4642027359438122,0.010230787431835846,-0.029158935814124782,9.800000019220567
1727705628.4890323,-2.923502541311847e-07,4.957684520374868e-07,0.8613142861895474,-0.5080725345907403,4.4821382640238705e-08,-5.365707691768213e-07,-0.4644607820306958,0.004627819669837814,-0.030142397841062603,9.800000025021488
1727705628.521217,-2.891833292238365e-07,4.983428183250162e-07,0.8648881767342452,-0.5019645821619102,3.6092610183350465e-08,-5.480332084161656e-07,-0.4863986886669178,0.3117442957337241,-0.011583983266730595,9.799999884959524
1727705628.7420714,-2.846003845803697e-07,5.020244186647389e-07,0.8699273565332222,-0.4931798803223701,4.33252158218526e-08,-5.896112597700835e-07,-0.5095408477440794,0.017269373316110916,-0.03446053739859448,9.800000024996681
1727705628.7455533,-2.8082597246586506e-07,5.047206913441509e-07,0.8739911161011273,-0.485941898765657,3.3287682153060625e-08,-6.525152716315415e-07,-0.5753060030645728,0.31331728827761834,-0.03371618672957344,9.800000030699563
1727705628.7555928,-2.7664182627829127e-07,5.078910624345668e-07,0.878445431246692,-0.4778426773755967,8.715204054667915e-08,-7.250686387823404e-07,-0.6322971307034062,0.19051959193431137,0.08407239537949285,9.800000965487664
1727705629.049105,-2.7054501550794217e-07,5.122470106809462e-07,0.8844844908045181,-0.4665695934433968,4.443252466919109e-08,-7.446163252101052e-07,-0.6405767886833355,0.012430413610858473,-0.05644753018408224,9.800000047045252
1727705629.0503645,-2.6562294724920097e-07,5.153028588528133e-07,0.889227702857173,-0.45746485380957846,2.9080925298301512e-08,-8.074743340221793e-07,-0.7063313231951803,0.31641452267383346,-0.07320426963695355,9.80000007760945
1727705629.058966,-2.6036168717449156e-07,5.18983062857697e-07,0.8942758029410341,-0.4475162435865666,6.752344382771636e-08,-8.749913364452751e-07,-0.7556636069455112,0.12714156334128063,-0.007976115808223454,9.799999647345267
1727705629.099007,-2.562761669728261e-07,5.300982403961682e-07,0.900494998085573,-0.43486636846566695,3.5763923873329665e-07,-8.097746273644042e-07,-0.6736511055112284,-0.27333502356649875,0.8013153849759741,9.799997791863264
1727705629.1295528,-2.51467594454412e-07,5.33310416572551e-07,0.9043842636677258,-0.4267189984402354,1.465339006128101e-07,-6.944065779333128e-07,-0.5688544910508713,-0.4067930061401523,0.2388746658001959,9.80000243538678
1727705629.2055328,-2.491502942154094e-07,5.398623736875427e-07,0.9076946220209344,-0.41963135387375305,5.47659994335482e-07,-6.107563467960512e-07,-0.5107903359192164,-0.006486394597100307,1.4408577471440058,9.800004567321922
1727705629.2309058,-2.4581685215006097e-07,5.43834746167717e-07,0.9109505736665782,-0.41251551769136624,5.3960816601303776e-08,-6.281758773198742e-07,-0.5225187437484968,0.0417590310132629,0.09982717362686466,9.799998453857839
1727705629.4525485,-2.417554148248315e-07,5.497595102030161e-07,0.914896272244225,-0.40368900286391257,2.114560302450162e-07,-5.552360348759622e-07,-0.4448249883324088,-0.3252375607239433,0.5183917757185531,9.799999100878077
1727705629.4691825,-2.381992298325026e-07,5.515488234604731e-07,0.9174600219233204,-0.3978279881708918,-1.0014285089664474e-08,-5.131736452368874e-07,-0.4220344158113347,-0.0013418902453325213,-0.037033696685203496,9.799999743653242
1727705629.4973192,-2.3462349930175613e-07,5.529261658212145e-07,0.9199221944735136,-0.3921009514330132,-1.6511299680798424e-09,-5.009994903169609e-07,-0.41268404346414606,0.008556474697715682,-0.01127584618282626,9.800000265670425
1727705629.5417871,-2.3019934439829288e-07,5.552692276374318e-07,0.9230728075943986,-0.38462526162413296,5.856100834655071e-09,-4.852039478351184e-07,-0.3986225239775366,-0.012750724187373386,0.011658573844928022,9.799998461959339
1727705629.5689337,-2.2701658949118452e-07,5.570533367300995e-07,0.9253124109377586,-0.3792056726424203,8.149237821651498e-08,-4.707351586853099e-07,-0.3832499941742594,-0.10133570517368953,0.212200505027313,9.800001208292908
1727705629.608809,-2.2380315135683508e-07,5.583460481287652e-07,0.9274329481310934,-0.37398947407715427,-2.372410291716686e-09,-4.5283094746490976e-07,-0.373001084840454,0.016538832423459097,0.0007291520908963126,9.800000216400523
1727705629.8577156,-2.1958177279252188e-07,5.591837934556647e-07,0.9298018202331177,-0.36806055899922224,-4.960134833553553e-08,-3.4449206641740117e-07,-0.2662161658013735,-0.46061805595966304,-0.18327183498729477,9.800000232777275
1727705629.8913057,-2.1741872668149087e-07,5.599474954338926e-07,0.9311383960252888,-0.3646659943662027,-1.1740520684202707e-08,-2.905707951279578e-07,-0.24044691367379187,0.006294314660796632,-0.01009221666510983,9.799999980366874
1727705629.9191296,-2.1533136868677272e-07,5.605769860573305e-07,0.9324448326977566,-0.36131237727884735,-1.1737769984516782e-08,-2.8879327764290977e-07,-0.2398798985608323,0.02671834930909732,-0.008033230420578843,9.800000011371436
1727705630.1476192,-2.1078269639777223e-07,5.547373077236485e-07,0.9337104907983071,-0.3580289365021099,-6.997637675382802e-07,-2.767530504051167e-07,-0.22933075148472606,-0.048707724687187454,-1.9445620642951553,9.80000244791531
1727705630.1707814,-2.0639562283099858e-07,5.499196685855157e-07,0.9349846312873242,-0.354688228245823,-2.198832225690784e-07,-1.8204968129207483e-07,-0.14221904283296502,-0.3357112292358582,-0.6917243203240783,9.800001069541498
1727705630.1999693,-2.0433015749129903e-07,5.473887725688197e-07,0.9354858926185498,-0.3533640399238914,-2.008959114180503e-07,-9.612274091276255e-08,-0.07087703385106402,-0.3251686767842475,-0.6513899264543491,9.800000875228825
1727705630.2299352,-2.0302387302944376e-07,5.450770976441687e-07,0.935627511346925,-0.35298889502422237,-1.4008090430874054e-07,-1.7508144199463686e-08,-0.007021520350441422,-0.2559429979983039,-0.488553269400514,9.80000155144127
1727705630.2818637,-2.0318118554578235e-07,5.454055048112038e-07,0.9356815105667451,-0.3528457322728946,2.473766228228185e-08,-1.1752072593387546e-08,-0.027961374894898416,0.38941754998254124,0.054129684461283446,9.799999982903646
1727705630.3141437,-2.0291785760275172e-07,5.458920105490893e-07,0.9361116390421979,-0.3517029986357672,2.363910953135908e-08,-1.0625263200367804e-07,-0.10748029325613108,0.3624408526610642,0.04817999793963565,9.799999935780782
1727705630.5697138,-2.042944948030463e-07,5.525623169950936e-07,0.9367880641844337,-0.3498973032208653,6.403658815614043e-07,-1.4761158424797222e-07,-0.12491745471031193,-0.04125555483753073,1.7212380791095188,9.799997162912394
1727705630.587912,-2.073198678177498e-07,5.647679887475267e-07,0.9376087231303902,-0.3476922235389185,6.1508749841795e-07,-1.37320922314995e-07,-0.1134389723331825,-0.02867282312970729,1.7223392791891747,9.799997804340165
1727705630.624275,-2.0590798391339105e-07,5.645079024111825e-07,0.9384718046176372,-0.3453558627522541,-4.879362775164603e-08,-2.1368524335812212e-07,-0.19173529255866859,0.3747832686039095,-0.05356689333022445,9.800000070444032
1727705630.6701276,-2.0323815094981192e-07,5.626603970257795e-07,0.9396300872695985,-0.34219190390388954,-2.1339515478133103e-07,-2.760486759273034e-07,-0.2391619935341684,0.2566715875567749,-0.5414044318963932,9.80000371140856
1727705630.6896288,-2.0066290429165176e-07,5.622364433204572e-07,0.9409721074013099,-0.3384841105463911,-1.2389374674339188e-08,-3.1821569069523796e-07,-0.2669991388424631,0.053911546005850276,-0.02837669282373424,9.80000102880546
1727705630.7367926,-1.969825480672993e-07,5.620703021867213e-07,0.942936883802958,-0.33297152004880526,-2.4969440577278045e-09,-3.544832769000521e-07,-0.29713910886133965,0.03454131568983549,-0.015540812602227148,9.800000226744423
1727705630.9562364,-1.9476728319871177e-07,5.63964890567745e-07,0.9444962056290808,-0.3285223242824038,1.2720703529746694e-07,-3.8524858435330166e-07,-0.3305082916966656,0.24175247630847893,0.37056562178650987,9.800000415973978
1727705630.9879813,-1.9252380128219904e-07,5.669928757152885e-07,0.9462557849279444,-0.323419216327727,1.4269712731268407e-07,-4.4054096671996044e-07,-0.3744073591380134,0.23641984463057147,0.4160768746179725,9.799999502782438
1727705631.0428612,-1.885403481443031e-07,5.700070413451776e-07,0.9488091160491294,-0.31585006142426053,8.200017390043045e-12,-4.894113162865041e-07,-0.40615596658000547,0.06985792611731545,0.0024874566237329085,9.79999951666243
1727705631.314046,-1.8295172854034516e-07,5.647783079707878e-07,0.9506857116776228,-0.3101558924342069,-6.65931858607174e-07,-4.749452765467729e-07,-0.3924936170727262,-0.05921351840405594,-1.8776863137050246,9.800002363378203
1727705631.320024,-1.818609012918105e-07,5.727505138728085e-07,0.952467287688523,-0.30464088018994995,2.523316272916663e-07,-4.6627809861010084e-07,-0.3914864276287218,0.16375250109227796,0.715042510805707,9.799993515191195
1727705631.3600514,-1.7755493306532514e-07,5.754078166697232e-07,0.9549236038107654,-0.29685166478343644,-7.639115349056494e-09,-4.980744909359712e-07,-0.41142550932748423,0.061219020849042426,-0.01123751415462773,9.79999978151276
1727705631.3919194,-1.7452822152564323e-07,5.784666236286422e-07,0.9567717199853907,-0.2908399488306789,1.5641088576362581e-07,-5.138298459133834e-07,-0.42583046529354696,0.12995895911965014,0.45698334000216057,9.799997412291388
1727705631.4676704,-1.7078898951572178e-07,5.796676380524151e-07,0.9586207684860855,-0.28468618200886014,-1.2573225805882682e-08,-5.217125516453793e-07,-0.42882418465558597,0.0619327787477349,-0.017236943477467518,9.799999855489725
1727705631.4985602,-1.675831272248655e-07,5.830316055952999e-07,0.9604945459361485,-0.27829880924384826,3.673323644916905e-08,-5.457854506829863e-07,-0.4478672507996527,0.10000371011251784,0.13162333599331746,9.799996862153316
1727705631.7473648,-1.621139373870827e-07,5.842385468588028e-07,0.9630479266929486,-0.2693300779564828,1.2247103810049113e-08,-5.896911024676157e-07,-0.4937020725698071,0.3568653019028806,0.08891203237223366,9.800001323718027
1727705631.7520943,-1.581567050281491e-07,5.873658742337683e-07,0.9650842124850448,-0.26193980761188346,1.6182147139246818e-07,-6.311925995222823e-07,-0.5185021611358296,0.16842225909856354,0.4764421964559053,9.799998093024733
1727705631.7828188,-1.5355991415224714e-07,5.888203023607397e-07,0.9670927493535226,-0.2544240832693991,-1.3721936843386101e-08,-6.363873684171551e-07,-0.5181831367580223,0.08185321967129199,-0.017200658559881888,9.799999576338811
1727705631.822202,-1.4739027825502762e-07,5.905748930943576e-07,0.9696802875918171,-0.24437704445278874,8.940484854732272e-08,-6.371298387064643e-07,-0.5208930301049619,0.12530841560684794,0.2728551643747929,9.80000184259087
1727705631.8512292,-1.4272735239090212e-07,5.918448653958187e-07,0.9715546569029593,-0.2368154316124746,-8.425550445295657e-09,-6.370609740571311e-07,-0.5182308503140858,0.07399870831037145,-0.002022905859828987,9.799999752814283
1727705631.882154,-1.3836049221760852e-07,5.945824085989206e-07,0.9734054992283497,-0.2290889217566729,1.9770496588438656e-08,-6.534635596412364e-07,-0.5304087846530352,0.09159010087168422,0.08333047413212404,9.799998638579394
1727705632.1221368,-1.3041430938447077e-07,5.891423249300303e-07,0.975751546948936,-0.21888106045611794,-6.866392047470221e-07,-6.342829375271586e-07,-0.5155594548926007,-0.0030096782602347205,-1.9038493581424645,9.800003117473253
1727705632.1515968,-1.2454046535194555e-07,5.837403231474557e-07,0.9773062916105613,-0.21183109398305228,-3.386075750507632e-07,-5.66976180991312e-07,-0.4593231100340499,-0.2622151877824782,-1.0044907137368855,9.800002793395798
1727705632.184786,-1.1904894826672792e-07,5.770067511261261e-07,0.9786497806528061,-0.2055349284862968,-6.576454813060674e-07,-5.045496539440443e-07,-0.4219880090682636,-0.059046645331906136,-1.883433716210939,9.800002351762785
1727705632.4119515,-1.1407287181362729e-07,5.709935245849156e-07,0.9798623897662043,-0.19967397707594392,-8.630194257970527e-08,-4.566360686136911e-07,-0.3749234470873989,-0.4426926526579282,-0.39540101382173226,9.800011446830757
1727705632.4217951,-1.0980392592835387e-07,5.693857612548579e-07,0.9810912093953941,-0.19354596055393775,-6.746445799104911e-09,-3.3799316786269885e-07,-0.28954966170820706,-0.09998220886399573,-0.12760523148398478,9.800002485929753
1727705632.4514563,-1.0746351663004514e-07,5.702752144002208e-07,0.9819156014663246,-0.18931917915702207,2.9230244599240886e-08,-3.302969630308603e-07,-0.2868035435468471,-0.0005535190191749733,-0.012096197197560847,9.800000020651495
1727705632.4814672,-1.0513107103545864e-07,5.711690666053033e-07,0.9827208279119775,-0.18509396097026148,2.844140357652065e-08,-3.3046682112272277e-07,-0.2867448105369818,0.0015847592153696577,-0.011508427096905366,9.800000007291752
1727705632.547174,-1.0200711531014809e-07,5.723259588630289e-07,0.9837661522578439,-0.17945516897392177,2.7295781885332887e-08,-3.3090088331313517e-07,-0.28674353502062216,0.001631228282864037,-0.011501011622779621,9.800000007499936
1727705632.5763853,-9.965376741816826e-08,5.731678029541969e-07,0.9845289142211551,-0.17522219340647022,2.6465741249545866e-08,-3.31217466886659e-07,-0.286743527570121,0.0016314991468334217,-0.011500964649298973,9.800000007679296
1727705632.797298,-9.727690289481203e-08,5.739736737873478e-07,0.9852418132916612,-0.17116824863689017,2.2410153342968272e-08,-3.124456811103854e-07,-0.24974358597674617,-0.5168113142844084,-0.08897187892628239,9.79999998760846
1727705632.81335,-9.512820857824942e-08,5.748338106317086e-07,0.9857952161024323,-0.16795175470717422,2.8140412851243126e-08,-1.5212980718280614e-07,-0.12164083844935086,-0.27879922421068615,-0.02676176032761482,9.800000166006289
1727705632.845787,-9.421609568729262e-08,5.7534021457255e-07,0.9860832282585998,-0.16625241937114205,2.2332810028665482e-08,-1.3010095403064052e-07,-0.11407470019222271,-0.005963229225281415,-0.0026545790832246613,9.79999999844978
1727705632.873483,-9.333404256665186e-08,5.75825621008998e-07,0.9863658938667095,-0.1645670787739339,2.16555796642003e-08,-1.297895906967198e-07,-0.11390764171635323,0.0001248521755457716,-0.0018240950303762282,9.799999997566642
1727705632.9164948,-9.244831384123636e-08,5.762999228147869e-07,0.9866456278682862,-0.16288156742877458,2.1005462169895387e-08,-1.2994610152324392e-07,-0.11390407023591012,0.0002550044863091987,-0.0018055444775932619,9.799999997649621
1727705632.946782,-9.124939262106403e-08,5.769139940013794e-07,0.9869894269965289,-0.1607851703258782,1.95382823036575e-08,-1.1440251556546253e-07,-0.08316821937133921,-0.43021348421110506,-0.06191433576659484,9.800000015705768
1727705633.1928623,-9.117089684653257e-08,5.80390109303955e-07,0.9871636363585056,-0.15971210051560547,6.437702871522013e-07,-8.11332554612512e-08,-0.07050798275062428,-0.024465318167463942,1.7264330906739538,9.800010281087669
1727705633.2213945,-9.210927359279977e-08,5.898285178619925e-07,0.9873239803950905,-0.1587178557580664,6.246380979746077e-07,-7.673003946519887e-08,-0.06550243634481347,-0.018888221480336722,1.726729778657323,9.799997813405612
1727705633.283548,-9.332369354631216e-08,6.01975512793199e-07,0.9875189893279567,-0.1574999864010157,5.999753975873352e-07,-7.12187385855822e-08,-0.05945395188392455,-0.012494184722464276,1.72703816739678,9.799997775835003
1727705633.5245955,-9.420824597978284e-08,6.10768403106367e-07,0.9876525533615843,-0.1566602497060473,5.821152304195341e-07,-6.734317754435811e-08,-0.05534024467630736,-0.008381766369449102,1.7272200828197206,9.79999774869188
1727705633.5272381,-9.50712583864703e-08,6.192982553069784e-07,0.9877763007339152,-0.15587809245699086,5.647839338863822e-07,-6.367795845823313e-08,-0.05155309634199669,-0.004780934990890181,1.7273654846305826,9.799997722378231
1727705633.5678241,-9.546157890713204e-08,6.258500416025811e-07,0.987949117261848,-0.15477900923941312,-3.5400975561493974e-08,-7.624700913971835e-08,-0.06298402112227679,0.05927584770684895,0.12446905878630969,9.799994621843096
1727705633.5982366,-9.468451256452137e-08,6.246425920114801e-07,0.9880987581281058,-0.15382081843916917,-1.1458466422937854e-07,-8.076895374991973e-08,-0.06608803044484278,0.046932155955102334,-0.1020054949074798,9.799999379759948
1727705633.6849022,-9.390585557553488e-08,6.236012888984942e-07,0.9882523272208853,-0.1528310758390034,-7.399368048979889e-08,-8.301097767738904e-08,-0.06685381132774673,0.019771680684635237,-0.0008173016892581561,9.800000028254232
1727705633.7103264,-9.344882819898251e-08,6.246715416726421e-07,0.9884081300941066,-0.15182018430851724,3.4270804422027513e-07,-8.577048211831653e-08,-0.0708302453550379,0.07474873985331405,1.1557297624811076,9.800006732334799
1727705633.9519649,-9.286666234065444e-08,6.267559791950274e-07,0.9886251453240078,-0.15040053867151582,5.503587219381816e-07,-8.987966534982568e-08,-0.07070186073213293,-0.0010104211635441026,1.7257738009540733,9.800010107419892
1727705633.9574678,-9.34330469731959e-08,6.348563898339757e-07,0.9887770904200537,-0.14939834490395293,5.339932133834145e-07,-8.514603626091824e-08,-0.06605528968895785,0.002909221001827772,1.7260240931258761,9.799997677924715
1727705633.9778109,-9.35060393588513e-08,6.396346538051088e-07,0.9889366403626486,-0.1483385362871677,5.0667036231904516e-08,-9.626508352071641e-08,-0.07964280735274995,0.16138854359106602,0.44683362885876493,9.79999318129259
1727705634.0188675,-9.231438146710841e-08,6.388229586631683e-07,0.9891804227522711,-0.14670409415971253,8.963550204583e-08,-1.06664653681133e-07,-0.08193489918731976,0.015418149606811357,0.5274849360927677,9.800003105616835
1727705634.056246,-9.13337652121364e-08,6.375831643372959e-07,0.9893590301086171,-0.14549470623401223,-1.0051825360896075e-07,-1.0491044974211461e-07,-0.08144886332985701,0.03310438648781608,0.0005290991478095423,9.79999995405812
1727705634.084137,-9.05205028958723e-08,6.374531826809903e-07,0.9895425183126092,-0.14424147964827838,1.4912808799371804e-07,-1.105628326892393e-07,-0.09043728166715909,0.15942283182547481,0.701470296704409,9.800004002953084
1727705634.3142729,-8.90579731961212e-08,6.357106601623667e-07,0.989830175043346,-0.1422540845573404,-1.318506430554895e-07,-1.3814521949337554e-07,-0.12118959160001114,0.4224434254965697,-0.045969134583164074,9.799999411839792
1727705634.3445387,-8.723053658730142e-08,6.330981717059182e-07,0.9901906788564199,-0.13972265208424017,-2.543155382405043e-07,-2.3532414997323782e-07,-0.19174976298681418,0.3530217057504153,-0.41601264430966045,9.799999156560338
1727705634.3852806,-8.427991130382877e-08,6.269430605400097e-07,0.9906500564914815,-0.1364275103233336,-7.79244718840006e-07,-2.9346159102855563e-07,-0.22487848754690437,0.028814142247774163,-1.9439073585414752,9.79999218393738
1727705634.6465778,-8.06251644186449e-08,6.15885452273212e-07,0.9910857964341664,-0.13322516318649463,-7.560621274003774e-07,-2.690837092067873e-07,-0.21079635678745645,0.01195626167776754,-1.942064129156641,9.800002564542064
1727705634.6540167,-7.918653586176511e-08,6.250079117086447e-07,0.9916252957978758,-0.129148258731499,1.5764727997972443e-07,-2.6398008878552185e-07,-0.21399820427942826,0.26042303147178214,0.6493308782631639,9.799992859047704
1727705634.6874788,-7.713415547691665e-08,6.265484161058136e-07,0.9920944081768088,-0.12549376583683047,7.587538813245026e-08,-3.24508309502728e-07,-0.26149869192945074,0.3169788483495406,0.43236716651365525,9.79999935400097
1727705634.7220967,-7.457826749413735e-08,6.279547294403571e-07,0.9926357691093681,-0.12113723574629387,6.980311005898407e-08,-3.859791345018158e-07,-0.30814990325648195,0.33387320570217616,0.4154691517009202,9.79999944247338
1727705634.7976773,-7.036753485292037e-08,6.283818099331569e-07,0.9934129802670066,-0.1145890511201817,-7.365002727030872e-08,-4.3189143896069546e-07,-0.33573274364596495,0.15684356571627373,-0.01020838600499302,9.79999991136609
1727705634.8349593,-6.692948324074922e-08,6.275215673520221e-07,0.9939854824974186,-0.10951191982600039,-7.860891277547916e-08,-4.4088062350377327e-07,-0.3439996519542656,0.17341842617149245,-0.029719611299833505,9.800000412833338
1727705635.0453203,-6.345836487187087e-08,6.268322228741764e-07,0.9945385923569587,-0.10436947979290884,-6.997257192978466e-08,-4.4255916473430006e-07,-0.3449032655476121,0.14427371466584588,-0.016010181814575596,9.80000003685214
1727705635.0540595,-5.8789983486406185e-08,6.282789947379459e-07,0.9953034802386338,-0.09680383372813928,-2.862339445214582e-08,-5.076181960824076e-07,-0.39836856668625326,0.26773622387446044,0.1086068936851271,9.799998123777412
1727705635.0832353,-5.4782888917751264e-08,6.276914834466543e-07,0.9958691922901268,-0.0907995145747647,-6.825367293239595e-08,-5.170245902062826e-07,-0.4027190159088442,0.17938063158543174,-0.019226858444299225,9.799999998057714
1727705635.3679638,-5.0763325273463955e-08,6.270436919103214e-07,0.9963998040851787,-0.08477871441949153,-6.699144024320905e-08,-5.165632123644953e-07,-0.40298291893879606,0.17397327739325216,-0.021754903604673883,9.80000003898049
1727705635.374857,-4.7316422715631794e-08,6.330203452689502e-07,0.9968911156066875,-0.07879152000089268,1.4972541131871932e-07,-5.192017658676654e-07,-0.4057831436783368,0.2945062798168657,0.6203459254021593,9.799993683991119
1727705635.3964636,-4.1951906474571815e-08,6.332460876523728e-07,0.9975007495982023,-0.07065588829405522,8.08738666114049e-08,-5.282745804050838e-07,-0.41014823860812916,0.2343245259598631,0.42045545577685695,9.80000244688574
1727705635.4268496,-3.7860692347072086e-08,6.32833553354054e-07,0.9979159642596607,-0.06452695774100803,-5.968758762100559e-08,-5.288267348598985e-07,-0.4084374836881422,0.17850463282992848,0.022973035435105107,9.799999834281763
1727705635.4572823,-3.3820746150779515e-08,6.329427663838227e-07,0.9982932661897527,-0.05839995445027185,-5.5077771231171387e-08,-5.28559900825953e-07,-0.4085543364015278,0.18391108668404704,0.035748689618691404,9.79999960842602
1727705635.5193818,-2.848815754060623e-08,6.328959266890291e-07,0.9987293810451732,-0.050394676670493466,-3.3830145452736545e-08,-5.096102123606057e-07,-0.3926611932175774,0.13212546166520164,0.08871873527679779,9.799997490549586
1727705635.814686,-2.4606084907787116e-08,6.32006733743191e-07,0.9990056157519154,-0.04458452305158028,-6.595233549845117e-08,-4.978983333925235e-07,-0.3858741419603153,0.16592046556551182,0.0015279365577175168,9.80000026379732
1727705635.8161807,-2.0420558400887597e-08,6.207073207002058e-07,0.9992416077969892,-0.03893853164800576,-7.580148184673966e-07,-4.740140753182899e-07,-0.37209594489947406,0.11037037374049319,-1.9645686164025105,9.800002591720066
1727705635.8424022,-1.5309142500418655e-08,6.061216408068106e-07,0.9994961747326152,-0.031739513142163556,-7.28139250318119e-07,-4.3677179871271303e-07,-0.35291238522887214,0.07041641396797471,-1.9615917078541285,9.800002524427818
1727705635.869936,-1.1813825257842708e-08,5.955349453399673e-07,0.9996462344137175,-0.0265971055214822,-7.064675762874615e-07,-4.093554002307863e-07,-0.33795141351859576,0.04235983979760466,-1.959344708417773,9.80000247573548
1727705635.9337163,-8.59667661043814e-09,5.852438525537296e-07,0.9997648967198893,-0.02168297226689292,-6.854099131571973e-07,-3.8241610222637194e-07,-0.3225321645329171,0.016053571814974556,-1.9571010092134704,9.800002428494903
1727705635.963681,-5.647140344314978e-09,5.752424171333856e-07,0.9998554237042903,-0.01700387275836035,-6.649521272254231e-07,-3.5598411604566994e-07,-0.30668626492397755,-0.00840733642168689,-1.9548745330009132,9.800002382687389
1727705636.2238646,-2.3960591659056097e-09,5.883036489918443e-07,0.9999377497580055,-0.011157804826668005,6.397598354781106e-07,-3.350404600853755e-07,-0.28377096322251416,-0.0166504684192035,1.699918357861927,9.79999787130398
1727705636.2257535,-2.0353859614807287e-11,5.977486986813076e-07,0.9999750009663719,-0.007070886927918296,6.207743818245443e-07,-3.2093140392935074e-07,-0.26686307704305,-0.004864858600063338,1.7022130764112315,9.799997840321838
1727705636.236901,2.2905837233036152e-09,6.069036901645197e-07,0.999994778889878,-0.003231438165259448,6.023484825262845e-07,-3.06587605230799e-07,-0.25060199618940815,0.007462629827363928,1.7045899884698716,9.799997809942969
1727705636.5232592,5.332629753966436e-09,6.134569262359539e-07,0.9999983177976781,0.0018342304754704886,4.39629054384874e-08,-3.213432185644567e-07,-0.26563178673133286,0.21390392964266378,0.23369197260401042,9.799997011428264
1727705636.5254314,7.794683810188271e-09,6.212822951558811e-07,0.9999841949018349,0.005622272329097455,4.0350531226774937e-07,-3.102925718097837e-07,-0.24229179220886374,-0.07230672303789512,1.2251753162774137,9.799995040027257
1727705636.5578182,9.922801415174703e-09,6.227319766474807e-07,0.9999608971828261,0.008843308483227785,-3.336578279388319e-08,-2.6391496161073885e-07,-0.21044174966138068,0.06299478964235186,0.0576725855259355,9.799996954352922
1727705636.591755,1.2525375032814875e-08,6.216052837559539e-07,0.999915029752173,0.013035845784779676,-5.6017884899055536e-08,-2.607691617934625e-07,-0.20955990424679222,0.09389019581113216,-0.0059182368897584235,9.80000001618784
1727705636.6218362,1.446111756758144e-08,6.204224266616357e-07,0.9998692000665311,0.01617352027015967,-6.239149439382565e-08,-2.5957765994372703e-07,-0.2089571761432863,0.09169728525541665,-0.029911749576646537,9.800001090256977
1727705636.6556494,1.6391576551131995e-08,6.196045526617284e-07,0.9998136080451581,0.0193067130122902,-5.219841814322845e-08,-2.590837910804391e-07,-0.2089071324167071,0.0933327774406219,-0.005954441367771131,9.800000019517242
1727705636.6881564,1.825257449603876e-08,6.206744020453075e-07,0.9997542264195916,0.02216950057575162,-4.800389211082334e-08,-2.3468364726093557e-07,-0.18875054508092431,0.07065815442820876,0.010954105969119901,9.799999209221617
1727705636.9090242,2.0712921552431857e-08,6.271219195783832e-07,0.9996688189467573,0.02573426558504388,2.597477939842641e-07,-2.133620626829224e-07,-0.1616323715150152,-0.1518375725245667,0.8623133876370345,9.799993729569664
1727705636.924136,2.2120238499984443e-08,6.268287461851404e-07,0.9996097079590902,0.027936208646651306,-6.48183036900205e-08,-1.8099024090067515e-07,-0.14508765064286805,0.06017469147974147,0.0023831229161421314,9.799999702138003
1727705636.957521,2.3428031733179592e-08,6.25811272753961e-07,0.9995466866552999,0.03010682972383749,-6.541782906797145e-08,-1.7965203940470978e-07,-0.14473108929826917,0.07249154426246916,-0.002841849270285088,9.800000014834726
1727705637.0301242,2.5159529061743547e-08,6.245105632268464e-07,0.9994558768378616,0.032984090920771314,-6.286447267277649e-08,-1.7785995336743166e-07,-0.14354549401338593,0.07127130465587378,-0.002733720195783892,9.800000007592153
1727705637.0614605,2.644773268272688e-08,6.2355045848134e-07,0.9993825512783829,0.035135682716017136,-6.109081179922216e-08,-1.7756749016002784e-07,-0.1435200416136568,0.0721495633879564,-0.0027768886787755704,9.800000014657593
1727705637.0911655,2.73158825803019e-08,6.123109297959691e-07,0.9993078380996434,0.03720006333651871,-7.398149009781896e-07,-1.6523859706981538e-07,-0.13485731981282054,0.025159950634768814,-1.9326239534533207,9.800002517070789
1727705637.299048,2.9073607292701648e-08,6.173964113762633e-07,0.9992094421175411,0.0397553868396448,5.807750351752018e-07,-1.5204977967899975e-07,-0.1237373788958955,0.019583735479654543,1.72074391687774,9.799997756386478
1727705637.313531,3.032675146441657e-08,6.210112699136021e-07,0.9991348225467731,0.04158853657008271,-2.3104289819430277e-08,-1.5056781319680044e-07,-0.12313657192094338,0.06768345027895305,0.08994562178092405,9.799995898326012
1727705637.3562155,3.140741370192506e-08,6.201710033696615e-07,0.99905620352681,0.04343618530915988,-5.4629204332400535e-08,-1.509785059698779e-07,-0.12330618140835167,0.06204514997596709,-0.0017774276690510594,9.800000001049304
1727705637.6099558,3.2465025906958124e-08,6.193698525466033e-07,0.998978672930372,0.04518419004351276,-5.460474302067916e-08,-1.3830158143301876e-07,-0.11112430861561925,-0.0034305346120567528,-0.013991588275617122,9.799999802118164
1727705637.625103,3.3727548847690004e-08,6.182805927909325e-07,0.9988772351431195,0.04737371752832892,-5.113737189508692e-08,-1.3297843774339633e-07,-0.10944168399692306,0.05459324152275898,-0.0016726606482164402,9.800000011695825
1727705637.6612582,3.4668144065102234e-08,6.174895292242647e-07,0.9987981258702439,0.049013301844564205,-4.96368359287564e-08,-1.328615148416337e-07,-0.10943173196047823,0.054936467426787546,-0.0016195268675318131,9.800000011189915
1727705637.686681,3.560166659889537e-08,6.1673125112173e-07,0.9987177184523899,0.050625278753513914,-4.790724661184496e-08,-1.2930754786196037e-07,-0.10634641123148142,0.04432375029746278,-0.0020092454964693376,9.79999997682224
1727705637.7566798,3.681194034138421e-08,6.157370952177363e-07,0.998607451321872,0.05275564580265196,-4.6153416752500963e-08,-1.2968614229620128e-07,-0.10828440904480893,0.0839636691894387,0.0031547796977454325,9.800000011080623
1727705637.788737,3.7744986406893876e-08,6.150117925349499e-07,0.9985198418617515,0.054388651463359416,-4.497852211564649e-08,-1.3216198665935106e-07,-0.10911177718460512,0.055429624054232435,-0.0015136418507800706,9.800000009865613
1727705638.039071,3.869094345912597e-08,6.143067408762345e-07,0.998427563854767,0.05605711136561092,-4.3593427466831163e-08,-1.3643336820768576e-07,-0.1129556571715146,0.06799492122175135,9.904519558286235e-05,9.79999999698496
1727705638.054893,3.999258299032432e-08,6.13388223097598e-07,0.998297962039481,0.05831962780608835,-4.1974247582457354e-08,-1.3745783440283944e-07,-0.11353402768805253,0.06057980959438185,-0.0012240510968214242,9.800000009527334
1727705638.0877082,4.097275446101506e-08,6.127187532314503e-07,0.9981971155092548,0.06002098456895394,-4.0750802787869934e-08,-1.376839790926588e-07,-0.1136334728639539,0.057150092765433626,-0.0017330251485617209,9.800000009546197
1727705638.1727202,4.195242219759524e-08,6.120655435164478e-07,0.9980935322879823,0.0617195334114119,-3.9563235516293356e-08,-1.3725800271230426e-07,-0.11331845118744394,0.05598347752328257,-0.0018711129915143026,9.800000009770297
1727705638.2113495,4.292941615007378e-08,6.114282413123731e-07,0.9979872031654938,0.06341563149208274,-3.8408582524298554e-08,-1.3710307527323474e-07,-0.11329242147175184,0.056881188865858676,-0.0017369326994359122,9.80000000910227
1727705638.250603,4.398642971631054e-08,6.106132524302075e-07,0.9978780928003252,0.06510999853179916,-3.690793903814312e-08,-9.221792074443543e-08,-0.077179950376451,0.02066171180113429,-0.0034762600217104994,9.800000017454632
1727705638.4550426,4.4500822733678365e-08,6.096212990881844e-07,0.9978209439729675,0.06598002552684035,-2.184240547082139e-08,-5.5538672476264464e-08,-0.047149874948653005,-0.020691805507506197,0.029076434398933135,9.80000219957649
1727705638.4720228,4.482789013592431e-08,6.090994061322062e-07,0.9977751338808646,0.06666919985007713,-3.378783557365316e-08,-5.1821229019463455e-08,-0.04591475236337672,0.02194182463305499,-0.00032682856073461297,9.800000002743685
1727705638.5154705,4.527548957434185e-08,6.08421869759671e-07,0.9977107625483336,0.06762569256466333,-3.249126340126304e-08,-5.557380726647588e-08,-0.04893610298747361,0.026754998410044927,0.00011735495656436354,9.800000000990114
1727705638.7934146,4.5519728101084613e-08,6.07214776473424e-07,0.9976771511061682,0.06811976336063774,-4.802003477980186e-08,-2.5956696572479765e-08,-0.022100771824669893,-0.06819845883530269,-0.06077190969566393,9.800002258203767
1727705638.8077452,4.5601712067735426e-08,6.067126309693561e-07,0.9976563981993882,0.06842303070935324,-3.738014178557324e-08,-1.954728379920355e-08,-0.020309440597817557,0.013987194217703988,-0.022559123618354507,9.799999877182998
1727705638.8545136,4.571347262532689e-08,6.061334148849647e-07,0.9976283825598179,0.06883030081811364,-2.7824747149309004e-08,-2.0070433956661797e-08,-0.020421775088448432,0.01010962738401914,-5.6997152352354036e-05,9.80000000577825
1727705638.882432,4.5742976182793555e-08,6.048589267789004e-07,0.9976066826641514,0.06914410100260937,-4.6951969577406415e-08,-2.1156015144524936e-08,-0.02134302409909869,0.013097174778070875,-0.0591904318883761,9.80000268735526
1727705638.9234912,4.584292615982508e-08,6.044636099990189e-07,0.9975844261872227,0.06946447025884667,-2.4539807919285825e-08,-2.1520780485585394e-08,-0.02141731892696834,0.010529763987384257,-0.00021543744274749138,9.800000012213115
1727705638.9553514,4.588345963975762e-08,6.033710645771652e-07,0.9975642257626294,0.06975396388907984,-2.4837107888048933e-08,-1.879400261335223e-08,-0.019098381553072384,0.007454420768363697,-0.007347757629039077,9.800000322621662
1727705639.206903,4.5866015656977994e-08,6.013734342795603e-07,0.9975432308013825,0.07005357008729723,-5.747601610097385e-08,-8.778202540327127e-09,-0.009989553372801906,-0.022047978013054522,-0.11159977758485354,9.800004870019054
1727705639.2124465,4.580768862608021e-08,6.006828933409207e-07,0.9975385540185422,0.0701201343854474,-1.825193434834487e-08,-8.540807179225089e-11,-0.0037871819577577712,-0.0030113437363441906,-0.004816844904914395,9.800000191370922
1727705639.246665,4.5754522369995944e-08,6.004388756751425e-07,0.9975346950604527,0.07017501086773548,-1.624530410465468e-08,1.8317306795883602e-10,-0.0036531897070118434,0.0016257840768051683,-1.830805895815061e-05,9.800000003712146
1727705639.3304024,4.573919046733445e-08,6.002652920141128e-07,0.9975177475880481,0.07041550430483717,-1.2342803652388852e-08,-2.0597855491691585e-08,-0.022511969960491693,0.06625017175367463,0.017843271816141006,9.799999536233441
1727705639.3630042,4.587998690610025e-08,6.000236474759713e-07,0.9974924425172105,0.07077306776371178,-1.5527325085275682e-08,-2.5418668544726555e-08,-0.02406236414849601,0.012618361138543375,0.00013115090267794868,9.800000001094833
1727705639.3930433,4.611625387826253e-08,5.992996781429265e-07,0.9974440999549201,0.07145115439765926,-1.5858236406380638e-08,-5.4142664406538376e-08,-0.04785452599133828,0.040994629487947014,-0.002232691583133884,9.800000202292102
1727705639.6264174,4.6541614545761457e-08,5.974340310330508e-07,0.9973662072834861,0.07253032861220976,-4.965494113109361e-08,-6.967982032180896e-08,-0.06132443227707968,0.06671896205692729,-0.1024040086511857,9.80000482907196
1727705639.636614,4.707096767399192e-08,5.974045081504496e-07,0.997298627273618,0.07345371357390929,2.8198054820123378e-08,-7.210244652593125e-08,-0.06073326470844947,0.006590952507951629,0.10278969855579968,9.800000648129377
1727705639.6690793,4.757678740474474e-08,5.972449244475157e-07,0.9972318958543509,0.07435419215066169,-1.0205196061409641e-08,-7.03024905975043e-08,-0.060132576875815705,0.02749376865653918,-0.00026229766350366384,9.799999989193841
1727705639.9793978,4.8086199758453397e-08,5.971550806998909e-07,0.9971650496362819,0.07524535722230141,9.471396378716679e-09,-6.94348059904558e-08,-0.0584903070388944,0.005136396947753528,0.05041084243185197,9.80000032346407
1727705639.9873326,4.870377775351394e-08,5.965737994056615e-07,0.9970766525124981,0.07640778110973451,-8.034316557164665e-08,-6.830256993691833e-08,-0.05933253844683933,0.047304274511033424,-0.1930923867447937,9.799998843421967
1727705640.017588,4.919826131715506e-08,5.963467826661872e-07,0.9970076881756209,0.07730245609516717,-8.959078324753763e-09,-7.001951100645586e-08,-0.05988018474366889,0.028165007519920623,-0.0009721843242475954,9.80000002650116
1727705640.050719,4.967350074925791e-08,5.958478610946598e-07,0.9969369855245391,0.07820899496149863,-7.532893937855262e-08,-7.120227859934472e-08,-0.06207819068410882,0.058339987845883366,-0.18154349427334815,9.799998903619768
1727705640.1278722,5.03750757277862e-08,5.955892195187127e-07,0.9968379067022408,0.07946186356446416,-7.457105687887491e-09,-7.379688698610609e-08,-0.0629145228874555,0.029192805184732162,-0.000585162476046576,9.800000005046147
1727705640.158159,5.077208520808859e-08,5.933500756905675e-07,0.9967551177746816,0.08049369658318417,-1.0360324665777628e-08,-8.162843526896658e-08,-0.06973284605556296,0.03660338244437367,-0.020127848844811082,9.800000910771123
1727705640.3935862,5.122620275967458e-08,5.915271005938538e-07,0.9966645086991595,0.08160794752418643,-3.496022198588066e-07,-8.923558461907477e-08,-0.08387498118612535,0.22757567214730323,-0.9350559662026813,9.799994293908796
1727705640.406256,5.231555545250962e-08,5.905591410418528e-07,0.9964902412350466,0.0837090145860429,4.035486538305397e-08,-1.2792970454227017e-07,-0.1091907661890241,0.08296095333462161,0.10759615436414315,9.800000689694807
1727705640.4366171,5.3298228291971474e-08,5.90545947088613e-07,0.9963506687457173,0.08535423182016388,2.3658528047831972e-09,-1.3093676127052166e-07,-0.11018062629229594,0.04877148708957494,-0.001243275800651994,9.79999998761669
1727705640.4688673,5.429326681758694e-08,5.906086626177049e-07,0.996209647312869,0.0869847032553282,2.4314253948616384e-08,-1.2928116020492038e-07,-0.10691462468750529,0.0019707445125355483,0.05349707913540326,9.80000036813906
1727705640.5530121,5.5241857354894864e-08,5.90575591426332e-07,0.996070338230296,0.08856568916590785,1.8865518470090465e-09,-1.2554939002331063e-07,-0.10567550982864901,0.04514729790827532,-0.0014845606716421492,9.799999993810975
1727705640.5847008,5.635259526225134e-08,5.887987800234392e-07,0.9958763337054408,0.0907211550028938,-3.788092882547966e-08,-1.3118626380158076e-07,-0.11138667776531444,0.06459788305348253,-0.11748766877538036,9.800005322143392
1727705640.803512,5.705665335407252e-08,5.856404343814722e-07,0.9957224685329109,0.09239461920685599,-6.204720931817301e-07,-1.3231180870335265e-07,-0.11254506026610188,0.05833135386993324,-1.7344885942160035,9.799989718733341
1727705640.806705,5.797843246614528e-08,5.841083028417944e-07,0.9955467458610161,0.09426917208290814,-2.97371606290866e-09,-1.500384517580448e-07,-0.12808848026091435,0.07011882926401881,-0.04715864222526671,9.800002138013811
1727705640.855916,5.951787528567564e-08,5.842350114701966e-07,0.9953010553197542,0.09682876266398643,1.3801405497003377e-08,-1.5165876154892672e-07,-0.12861537640728332,0.05162213145523677,-0.002249041340095142,9.800000000291536
1727705641.1328106,6.03382205257123e-08,5.809429331412808e-07,0.9951134359093046,0.09873828878625018,-6.674219537060772e-07,-1.4991292998699432e-07,-0.12650832714975818,0.02284205037089971,-1.8934859658638625,9.799988777644648
1727705641.1369262,6.141743876549322e-08,5.804147490711559e-07,0.9949203573575588,0.10066520011983399,1.8551872095134977e-08,-1.5133569852624986e-07,-0.12941184972791603,0.05112004035431592,-0.008915520390593984,9.800000310838179
1727705641.1710567,6.289782086952188e-08,5.801949618266886e-07,0.9946630642820936,0.10317649224806513,1.9481618952592542e-08,-1.4584486381498418e-07,-0.12462830992457101,0.04294413565319563,-0.007332051659527952,9.800000210082413
1727705641.202914,6.401844877610314e-08,5.803943725335368e-07,0.9944685924708152,0.10503436860749277,2.053625626119648e-08,-1.456073002784244e-07,-0.12452402818074917,0.04658144669903455,-0.0021349261351486523,9.799999998624571
1727705641.2339387,6.520875707833591e-08,5.811604960215171e-07,0.9942684272441902,0.1069125557875319,2.0790047170808996e-08,-1.4766884548540297e-07,-0.12608929405523578,0.04888541417220046,0.0036296632976686905,9.799999744876152
1727705641.2800233,6.631869378376694e-08,5.817543152660628e-07,0.9940981161699192,0.108484724395073,2.961979850984863e-08,-1.1126120000236517e-07,-0.09121546154013309,-0.07067857602341585,0.01800942745266632,9.799998761824943
1727705641.4981863,6.699532168559172e-08,5.785418868034396e-07,0.9939054865377787,0.11023558331937039,-6.773080607493596e-07,-1.0086056642106024e-07,-0.08644970897072585,0.00773219672097561,-1.9278622251372695,9.79998855555968
1727705641.5074782,6.659750064342058e-08,5.685706817486875e-07,0.9937677328397547,0.11147059328005143,-6.571341102925701e-07,-9.239931991408696e-08,-0.08107130269258134,0.0020000154718958106,-1.9273074510577375,9.800002338214824
1727705641.5389526,6.615718296616511e-08,5.589020251126163e-07,0.9936372396512625,0.11262786501529082,-6.375353060742062e-07,-8.456136577554367e-08,-0.07595353715110867,-0.0030522253125863505,-1.926770317431189,9.80000229643903
1727705641.579656,6.551323473036505e-08,5.464651391875442e-07,0.9934742518515798,0.11405661273087586,-6.123034723787492e-07,-7.501491327705518e-08,-0.06952461885843318,-0.008815439958986917,-1.926092550480286,9.800002242789729
1727705641.643139,6.499398915460254e-08,5.374668732745047e-07,0.9933600139254048,0.1150473065040038,-5.940345293212251e-07,-6.848702456568487e-08,-0.06499045236195083,-0.012469290473151283,-1.9256109549166298,9.800002203965608
1727705641.6733632,6.597896837587717e-08,5.417612699439165e-07,0.9932525482119097,0.11597144247723334,7.280656299178031e-07,-6.463044298125356e-08,-0.060530011242980575,-0.013690536971697037,1.726988546936258,9.799997970429311
1727705641.8958664,6.82388737759613e-08,5.557968645752384e-07,0.9931196282479209,0.11710424410924508,6.993244199682103e-07,-6.039350898410262e-08,-0.05500446514187439,-0.00813655992565413,1.727235867612168,9.79999792582413
1727705641.9012372,6.976000388236732e-08,5.649629797028675e-07,0.9930323962481533,0.11784167344927715,4.781728964951951e-07,-5.291393656437633e-08,-0.04233590368662314,-0.12934769292373993,1.1549663010306173,9.799994586703537
1727705641.9276226,7.029487801057324e-08,5.679321184998888e-07,0.9930168183276125,0.11797287195867362,7.844979550378293e-08,1.2153599083011365e-09,0.0017907733302038769,-0.0836879468761693,0.08234570590833494,9.799996710681931
1727705642.235312,7.030053969820993e-08,5.6861329513042e-07,0.993023594108958,0.11791582397031808,4.2955740882411516e-08,7.857738087319984e-09,0.004072649037524699,-0.0028173194627234065,1.185527300667363e-05,9.799999980505918
1727705642.2388756,7.039065410157844e-08,5.714493777717741e-07,0.9930723101779224,0.11750483716661508,3.845048433121798e-08,2.9511394405440766e-08,0.022697106615934326,-0.010737244279320816,0.0025089517636626736,9.799999848478906
1727705642.2604306,7.024718842708063e-08,5.72408979622542e-07,0.993114320035468,0.11714925240972529,3.676184580852294e-08,3.118289488213146e-08,0.02400966944633661,-0.007401499511708296,0.003548451384088181,9.799999824255654
1727705642.2902577,7.004979044490819e-08,5.729563227929159e-07,0.9931564902396195,0.11679120640950219,3.434519971025956e-08,3.1187148726746607e-08,0.02403770265189456,-0.006412694704746382,-5.4879143130185913e-05,9.799999992748383
1727705642.3340888,6.978525559026045e-08,5.736605686913808e-07,0.993212524606397,0.11631371786961764,3.299137553190743e-08,3.1085764084800275e-08,0.024038314058016937,-0.00639105945195982,-6.218006628228582e-05,9.799999993509829
1727705642.3939517,6.96463153436802e-08,5.746981710781761e-07,0.9932553976139022,0.11594703579873739,4.429671002649339e-08,3.2024734052828656e-08,0.02500321240092188,-0.009540342285777532,0.03615989671981677,9.799998345433496
1727705642.6501458,6.943670082119051e-08,5.751904227204886e-07,0.9932989348600515,0.1155734658368906,3.0046807129558784e-08,3.220123105469395e-08,0.025081547842449568,-0.0068047623140438775,2.476685031877527e-05,9.799999989511239
1727705642.6561017,6.918868561551226e-08,5.782908879614613e-07,0.9934285550535427,0.11445394708742562,4.123198364249853e-08,7.5894570659579e-08,0.0621451112714889,-0.0269557179151073,0.04503686154393833,9.799997887805564
1727705642.6831315,6.863100162146678e-08,5.787236391653888e-07,0.993535212087491,0.11352436893427126,2.3461136501943887e-08,7.662576681446477e-08,0.0624062273226463,-0.017814318088607464,-0.00040206117540404843,9.79999999019469
1727705642.707724,6.807039176257338e-08,5.791316367832792e-07,0.9936410546518164,0.11259420282628269,2.2721344000175795e-08,7.656934638411523e-08,0.06241183442728834,-0.017616407301760367,-0.0005035946340646893,9.799999996121025
1727705642.8011785,6.752904201054174e-08,5.797266069540126e-07,0.9937475104692388,0.1116507296700261,2.665500344181633e-08,7.807826174851658e-08,0.06390193008217881,-0.022514425537663155,0.012560218525737632,9.799999380127224
1727705642.8412218,6.668040599726229e-08,5.79469838229381e-07,0.9938895330374589,0.11037932831033687,5.597730291102537e-07,7.691997988388328e-08,0.06529766040832374,-0.05277194623234524,1.4691284258048087,9.800022577309493
1727705643.065628,6.614627137248599e-08,5.812152367669492e-07,0.9940275822883156,0.1091291237466136,2.390597338212232e-08,1.0393579063926846e-07,0.08606149765950052,-0.04080888002031489,0.009686041456773417,9.799999419084745
1727705643.0676289,6.50498419872741e-08,5.791080974437811e-07,0.9941816487297204,0.10771652300698864,7.107299714697345e-09,1.1568895026675177e-07,0.09615275514151292,-0.036721702745688894,-0.04843091070243918,9.800002059360944
1727705643.0923777,6.390071770783191e-08,5.7968055059646e-07,0.9943875176247459,0.10579917198047956,2.287485811453273e-08,1.1644084775391673e-07,0.09644496574344229,-0.026263876621595048,-0.0012590676038342773,9.799999997866939
1727705643.3722456,6.306694530097429e-08,5.80257535869517e-07,0.9945359026163814,0.1043951071970271,2.241001815417365e-08,1.1343045282682914e-07,0.09384925388183964,-0.023544237335725488,0.0006110885876048559,9.799999929435721
1727705643.3733122,6.199105389564612e-08,5.791994767384856e-07,0.9947057631374383,0.10276402474031004,1.9152536556675877e-08,1.3288644486784893e-07,0.11117130339085646,-0.04296081575382146,-0.0179648400560453,9.800000650080523
