timestamp,orientation_x,orientation_y,orientation_z,orientation_w,angular_velocity_x,angular_velocity_y,angular_velocity_z,linear_acceleration_x,linear_acceleration_y,linear_acceleration_z
1727705385.1251945,6.132400791909353e-07,-1.3165519695774888e-09,-1.4274793684321274e-06,0.9999999999987931,-3.8584223424838624e-08,3.995493614318591e-10,1.4912154295628505e-14,2.5686477684105e-08,1.2009713753406933e-05,9.799969111493859
1727705385.1270616,6.126728151680118e-07,-1.3106789093420946e-09,-1.4274793679880382e-06,0.9999999999987934,-3.7438064266970685e-08,3.876711901342178e-10,1.2250718770555797e-14,2.5576788652330086e-08,1.199888070234387e-05,9.7999700289195
1727705385.1446283,6.121224024658752e-07,-1.304976288301206e-09,-1.4274793680990605e-06,0.9999999999987939,-3.63253939906534e-08,3.764502615284443e-10,9.805126349504728e-15,2.547060483387308e-08,1.1988364674342493e-05,9.799970919101069
1727705385.1754797,6.115883460302759e-07,-1.2994433113008435e-09,-1.4274793677659936e-06,0.9999999999987941,-3.5247004130732997e-08,3.6521251541107315e-10,9.512285375616149e-15,2.5367704470669743e-08,1.1978205333899172e-05,9.799971782806757
1727705385.2178147,6.109008724619671e-07,-1.2923222748654597e-09,-1.427479367543949e-06,0.9999999999987945,-3.3856823156433264e-08,3.50513385479481e-10,1.633717000010668e-14,2.5221497422875992e-08,1.1965056901065568e-05,9.799972894692957
1727705385.2830448,6.104031080970994e-07,-1.287166909806847e-09,-1.427479367155371e-06,0.9999999999987947,-3.285120946747777e-08,3.4031569360025393e-10,1.0870600826909468e-14,2.5126189378606575e-08,1.1955562996707561e-05,9.799973699738157
1727705385.5252767,6.099201210323276e-07,-1.2821665541867024e-09,-1.4274793669888375e-06,0.999999999998795,-3.1875779886180804e-08,3.2991956488788814e-10,1.415600012327912e-14,2.5028594179692013e-08,1.1946338721760576e-05,9.799974480893528
1727705385.535851,6.092983776079758e-07,-1.2757310786630974e-09,-1.427479366822304e-06,0.9999999999987954,-3.062037891439017e-08,3.1692158066259544e-10,1.0417701254730159e-14,2.490909950319459e-08,1.1934488242412682e-05,9.799975486419669
1727705385.5605397,6.088482015655423e-07,-1.2710710376072882e-09,-1.4274793666002594e-06,0.9999999999987956,-2.971082966071143e-08,3.0760354914043893e-10,7.865217748094353e-15,2.4824315462129677e-08,1.1925888467866818e-05,9.7999762145114
1727705385.5916588,6.084113930384487e-07,-1.2665490143766232e-09,-1.4274793665447483e-06,0.9999999999987961,-2.8828219032443134e-08,2.9857449120646947e-10,7.178222663780796e-15,2.4736198134941753e-08,1.1917542634996137e-05,9.799976920966147
1727705385.6978884,6.078490984301971e-07,-1.2607279041281985e-09,-1.4274793662116814e-06,0.9999999999987964,-2.7692005849192602e-08,2.8653400082636985e-10,1.452610432569629e-14,2.4616666760226457e-08,1.1906815440097557e-05,9.799977830371546
1727705385.732271,6.074419704361026e-07,-1.2565091750644932e-09,-1.4274793662671925e-06,0.9999999999987967,-2.686968133642758e-08,2.784397453156907e-10,7.439191075474223e-15,2.454499744144461e-08,1.1899050845944045e-05,9.799978488829849
1727705385.9411306,6.070469371029542e-07,-1.2524153681621428e-09,-1.4274793659341256e-06,0.9999999999987967,-2.6071252640629917e-08,2.7009955217233137e-10,9.989296655759312e-15,2.4464429905640078e-08,1.1891509829542592e-05,9.799979127728191
1727705385.9421065,6.066636374856871e-07,-1.2484450219924282e-09,-1.4274793658786145e-06,0.9999999999987972,-2.529686810623322e-08,2.619250596638496e-10,1.1234313115478728e-14,2.438619788516681e-08,1.1884189594414106e-05,9.799979747657366
1727705385.9650853,6.061702301860525e-07,-1.2433321350449972e-09,-1.4274793656010587e-06,0.9999999999987974,-2.429913762159202e-08,2.5172011676364526e-10,8.442798266411503e-15,2.4291039584006246e-08,1.1874754973822152e-05,9.799980545693893
1727705386.230932,6.058129851373378e-07,-1.239634518062952e-09,-1.4274793654345252e-06,0.9999999999987976,-2.3577333390485554e-08,2.441794949396545e-10,4.570117010838338e-15,2.4224499985216198e-08,1.1867950896488012e-05,9.799981123504118
1727705386.2321744,6.054663461063681e-07,-1.2360474216889839e-09,-1.4274793652679918e-06,0.9999999999987977,-2.287737670124627e-08,2.3668273108809655e-10,9.987679161715612e-15,2.4148857137491795e-08,1.1861340410919861e-05,9.799981684143761
1727705386.266434,6.050201092336747e-07,-1.2314298436804577e-09,-1.4274793651569695e-06,0.9999999999987981,-2.197677505863321e-08,2.2709559798935225e-10,1.5295139497801687e-14,2.4053890734141064e-08,1.1852818884175229e-05,9.79998240586644
1727705386.2956307,6.046970105307355e-07,-1.2280861735640493e-09,-1.4274793651014583e-06,0.9999999999987983,-2.1323866975174212e-08,2.2067548078424025e-10,6.483395438810719e-15,2.4000556472266858e-08,1.1846650323439344e-05,9.799982928429621
1727705386.325008,6.043835068389017e-07,-1.2248406648569536e-09,-1.4274793649349249e-06,0.9999999999987985,-2.069030750308502e-08,2.1406712818931705e-10,1.1345960325131782e-14,2.3931072903515676e-08,1.1840662801428135e-05,9.799983435470011
1727705386.366,6.039799441924244e-07,-1.2206624927692782e-09,-1.4274793648794137e-06,0.9999999999987987,-1.987438364543903e-08,2.0581913472248834e-10,4.337555102881801e-15,2.3860822021858295e-08,1.1832954259554918e-05,9.799984088194902
1727705386.6003146,6.036877418151014e-07,-1.2176352265924878e-09,-1.4274793647128803e-06,0.9999999999987988,-1.9284685835608778e-08,1.9987631623667406e-10,4.970092609396271e-15,2.380069511160537e-08,1.1827390625832692e-05,9.799984560779562
1727705386.6038601,6.03404223482845e-07,-1.21469530393086e-09,-1.427479364601858e-06,0.9999999999987991,-1.871188394207113e-08,1.941138515696917e-10,3.151327066506388e-15,2.374847974358276e-08,1.1821990625294832e-05,9.799985019321987
1727705386.6237674,6.031291263244373e-07,-1.2118435608631414e-09,-1.4274793644908357e-06,0.9999999999987992,-1.815553910461687e-08,1.8807341731752243e-10,1.1655416155251902e-14,2.3680992062026727e-08,1.1816716117662182e-05,9.799985464283841
1727705386.6637719,6.027750114456807e-07,-1.2081744431217816e-09,-1.427479364268791e-06,0.9999999999987994,-1.743943407480933e-08,1.807355905709932e-10,2.2151424785444257e-15,2.3625988746376666e-08,1.1809961021393855e-05,9.799986037042599
1727705386.740405,6.025186100820287e-07,-1.2055224052398361e-09,-1.427479364268791e-06,0.9999999999987996,-1.6921595537317042e-08,1.7491803674151017e-10,9.942469964126118e-15,2.3563085786408306e-08,1.1805064570660428e-05,9.79998645176638
1727705386.7697716,6.022698259573169e-07,-1.2029483921742802e-09,-1.4274793641577688e-06,0.9999999999987996,-1.6419274458131227e-08,1.6980878332373723e-10,8.9604275545133e-15,2.351313439411028e-08,1.180032742255502e-05,9.79998685415159
1727705387.0060198,6.01949565238386e-07,-1.1996321407629256e-09,-1.4274793641022576e-06,0.9999999999988,-1.5772581034121604e-08,1.6334256087495381e-10,5.547994051457217e-15,2.3454347715107222e-08,1.1794210266766666e-05,9.799987372151227
1727705387.0104487,6.109911571401579e-07,-1.2063188780101397e-09,-2.419872880965457e-07,0.9999999999997841,5.967139300316686e-07,-3.4415471155595236e-10,0.00011761091002604688,0.0008418889396732085,1.7309125279220827,9.799985509794027
1727705387.0205548,6.197634763124354e-07,-1.2116878234261662e-09,2.626373438618934e-06,0.999999999996359,5.789349369687585e-07,-1.8972607512352652e-10,0.00022718093328451337,0.0008661268965711788,1.7307596343850982,9.799985847164619
1727705387.31322,6.275312465497841e-07,-1.248442623467072e-09,-0.00019327611299913006,0.9999999813219763,1.246656197419464e-07,-2.4645768485933068e-08,-0.027868981167181107,0.22606218447248883,0.557907125346658,9.799984653684026
1727705387.3158135,6.34375754361581e-07,-1.5188825437407276e-09,-0.0006553450127723681,0.9999997852612329,2.594723923560627e-07,-4.166473462994551e-08,-0.0386917575601273,0.17567015466621905,0.958354175151731,9.799981950425655
1727705387.3323188,6.346700700219046e-07,-2.0424268091848114e-09,-0.0016127836199130163,0.9999986994634504,-6.990162847270464e-08,-8.689815818901374e-08,-0.06891369129444246,0.051858332758939175,0.03740416293892342,9.799987770591697
1727705387.3643591,6.338419435987697e-07,-2.6999343081219093e-09,-0.00260948903964886,0.999996595277479,-7.887695091705004e-08,-8.514712232010795e-08,-0.0661542844624309,0.01167560118938634,0.0027237050512298167,9.799989418393144
1727705387.4063413,6.331101623137875e-07,-3.5398031327840784e-09,-0.0038641843030153833,0.9999925340117652,-5.7791862699660856e-08,-7.623184340878432e-08,-0.05854527761023151,-0.010129262813801672,0.05387866375161956,9.799987402714033
1727705387.4610505,6.319674533146781e-07,-4.1011675328965795e-09,-0.00473408144643972,0.9999887941734442,-7.639355406010861e-08,-7.41813215847895e-08,-0.05792805745666825,0.011901429404668267,-0.0003657425740670213,9.799990282353576
1727705387.4947672,6.332289274554184e-07,-4.674750758812957e-09,-0.005607122647898144,0.9999842799640455,-7.06002876520448e-08,-7.472057857479186e-08,-0.05824031838836932,0.013511542450151582,0.022650391145638916,9.79998953684018
1727705387.7274823,6.36913160724675e-07,-5.501158776955802e-09,-0.006997988185883819,0.9999755137806847,1.0357311837853711e-07,-1.046445864949764e-07,-0.09019496193664356,0.26744370275546214,0.5544714747379823,9.799988835292238
1727705387.7364957,6.342709281419629e-07,-6.427739697717386e-09,-0.008463630010179912,0.9999641828418898,-4.273987713733063e-07,-1.2576264605826454e-07,-0.09422316560358082,-0.06290001501696789,-0.9641113890759055,9.799985493728116
1727705387.7670484,6.327971186539167e-07,-7.323185192312585e-09,-0.009844640201635224,0.9999515403552812,-7.905535127870283e-08,-1.1803312253706271e-07,-0.0918145153476029,0.020902800551496657,-0.00408934196874326,9.799991602947532
1727705387.866264,6.282724260300233e-07,-8.457767203938069e-09,-0.011660757721156323,0.9999320110532384,-1.4428783244289508e-07,-1.1444081407721798e-07,-0.08961309706049796,0.0143886494379372,-0.20862470794943933,9.800001143267504
1727705387.9008455,6.27189151339851e-07,-9.308918550697162e-09,-0.013002416690111318,0.9999154650068289,-6.703863641225751e-08,-1.1364809174933722e-07,-0.08943129227308436,0.020528313984510462,-0.0016954195519917504,9.799992085537498
1727705387.9316576,6.248681211661729e-07,-1.0129743533744437e-08,-0.014325858921701906,0.9998973796174109,-6.685434970910468e-08,-1.114869207009534e-07,-0.08809323973662192,0.01863864931957233,-0.014055726215455706,9.799992874652546
1727705388.1096516,6.170391523811594e-07,-1.0841975719328305e-08,-0.015617935673983008,0.9998780326044284,-7.470201481893185e-07,-1.0621839358198067e-07,-0.08423578364404052,-0.008937638412117557,-1.927348847829802,9.799995038269413
1727705388.1236773,6.024571528391413e-07,-1.1603646668576779e-08,-0.017210650502129887,0.999851885785555,-7.174939537011433e-07,-9.42330056065413e-08,-0.07695761987411129,-0.014834707411550458,-1.9265776460327042,9.799995270893632
1727705388.1571987,5.923047226431578e-07,-1.2094984373270028e-08,-0.018331260416407757,0.9998319683282759,-6.152333481343872e-07,-8.805911340833142e-08,-0.07542891968355442,0.03190928696451057,-1.6949936050973486,9.799996766560113
1727705388.4139633,5.888693676415342e-07,-1.283344316966169e-08,-0.01997851929504152,0.9998004094650246,-1.6733268898188865e-07,-1.3874166520894541e-07,-0.1272017548065829,0.2482193291984347,-0.4569547201788629,9.79999540250625
1727705388.4290183,5.858970677072636e-07,-1.4555941459056374e-08,-0.02338346469618585,0.9997265694070847,-1.3988343387580784e-07,-2.1911815511312127e-07,-0.19561891903513184,0.23835880608420856,-0.4039838066643903,9.799994050721693
1727705388.4601178,5.838794687989394e-07,-1.6360526202274616e-08,-0.02680400633079738,0.9996407080767957,-1.2756173840394736e-07,-2.7570611724120663e-07,-0.2440822795715299,0.22549539148385145,-0.3874657810542211,9.799994218090124
1727705388.4893882,5.839218970746482e-07,-1.8551142951487916e-08,-0.030573150022660034,0.999532531985503,2.108551646560198e-08,-2.9524049917698123e-07,-0.2522464707879839,0.007768214471631568,-0.01012804033296976,9.799993974164531
1727705388.5372927,5.842550605194784e-07,-2.152349724685857e-08,-0.035709184442987985,0.999362223693729,2.1418787325497513e-08,-3.0525264665083076e-07,-0.27056562802291395,0.2555101155718166,0.02575301362225099,9.799994112331902
1727705388.5715532,5.844809615165738e-07,-2.395235761206328e-08,-0.03985615770684975,0.9992054276736613,2.0787838831375763e-08,-3.251866645578673e-07,-0.27738712338060767,0.006958229063546044,-0.010000023824436585,9.79999429662656
1727705388.8253908,5.846592322243832e-07,-2.6460495271427508e-08,-0.044343500260113855,0.999016343201821,1.7709902277223646e-08,-3.627944065496222e-07,-0.32134881212045785,0.30905735645294435,0.019523045018994826,9.799994432303283
1727705388.8275337,5.847795960709523e-07,-2.948034727578928e-08,-0.049815423034774375,0.9987584410794852,1.7169380022111307e-08,-4.403726207197324e-07,-0.3871253163357799,0.3098497922414756,0.008691387612526474,9.799994609683358
1727705388.8686752,5.850648478400834e-07,-3.433310010597429e-08,-0.058215375906889355,0.9983040468753375,2.3428755620481838e-08,-5.012874438528247e-07,-0.4272044442939367,0.028841617640223936,-0.018900072447417957,9.799994782345145
1727705388.944952,5.851630038683885e-07,-3.813391144312061e-08,-0.06462521861945153,0.9979096056848257,2.1675476925258167e-08,-5.03936781324165e-07,-0.4282965243478859,0.005151276089300059,-0.02541974511864523,9.799995013985628
1727705388.974763,5.852247402754372e-07,-4.194117553897452e-08,-0.07103569366435913,0.9974737742042539,2.0992644466004653e-08,-5.043081397947654e-07,-0.4283622051885127,0.0037252153441202107,-0.02566756045043377,9.7999951643079
1727705389.017258,5.852511915805596e-07,-4.716459621926756e-08,-0.080014424555993,0.9967937057699694,2.2310944475704982e-08,-5.43034706760873e-07,-0.4629106160396286,0.05403927585954867,-0.01990196792035821,9.79999527424335
1727705389.205023,5.851439958202353e-07,-5.133319108113364e-08,-0.0872822741792329,0.9961836199284528,1.3356381746327674e-08,-5.845083379353117e-07,-0.5081516647913091,0.31206223168391356,-0.016628009761009865,9.799995484432255
1727705389.217946,5.849119764737007e-07,-5.601296410077552e-08,-0.09552748502212666,0.9954267926899506,1.3023447616858471e-08,-6.623258760198629e-07,-0.5739123669505111,0.31301729548208407,-0.03332026715082187,9.799995638769449
1727705389.278327,5.849170916992189e-07,-6.301094305652882e-08,-0.10735608420712622,0.9942206350621405,2.4593363010895392e-08,-7.051796367656953e-07,-0.5977672858870028,0.01955169158877974,-0.046896978241942486,9.799995795200761
1727705389.5200372,5.910613596123437e-07,-6.905359858724289e-08,-0.11615987265574007,0.9932305291241545,6.62869599512362e-07,-6.989364963711543e-07,-0.583147040047733,-0.09607531846190955,1.7296620906118432,9.799993710202909
1727705389.530408,6.00103949150584e-07,-7.542602330252614e-08,-0.12462468277671035,0.9922039550628885,6.43048816555236e-07,-6.857527775398174e-07,-0.5611748928176787,-0.06335178940109266,1.73606557381075,9.799993794372574
1727705389.5612774,6.07221046333933e-07,-8.153452682599966e-08,-0.1326867318131698,0.991158025342258,3.3478814171175827e-07,-6.628871685514994e-07,-0.5267676414555809,-0.18892208936161844,0.9204197681905848,9.799989821885532
1727705389.6021397,6.084811002922926e-07,-8.803847483850376e-08,-0.1424179939734611,0.9898066048436921,-2.0615516252986248e-07,-6.02616662811685e-07,-0.49362047059508446,0.3286738296122222,-0.4707417322286965,9.79999193861367
1727705389.6767528,6.049599403721476e-07,-9.235924071164633e-08,-0.15022973243669474,0.9886511151521675,-1.815466702434922e-07,-6.604739182769885e-07,-0.5417250768655748,0.2953363628182396,-0.4354619910931159,9.799996923816552
1727705389.7101696,6.016590351878937e-07,-9.71098242707806e-08,-0.1587280462674262,0.9873223421597195,-1.7455169035220707e-07,-7.15228495303235e-07,-0.5888368261871498,0.2976187276447676,-0.44236411810662296,9.799997002663305
1727705389.9332736,5.919805066536819e-07,-1.0307525432449036e-07,-0.17076756998436188,0.9853113401566405,-6.804932650447276e-07,-7.412090069777179e-07,-0.6053564653292816,-0.022064961590500216,-1.9281172007777319,9.799999103174867
1727705389.950137,5.838364870062625e-07,-1.0715909038154678e-07,-0.17963256419416324,0.9837337759173858,-2.576518791369747e-07,-7.176417545731418e-07,-0.6059909227797979,0.16912659208711364,-0.7748081111484719,9.800003061825812
1727705389.9795544,5.793260698721522e-07,-1.119071149868762e-07,-0.18885212930154915,0.9820055362664322,-2.0503430007326058e-07,-7.464499936547681e-07,-0.6361198889738041,0.18711578671536327,-0.6545206529465639,9.799998557421672
1727705390.0818627,5.754447098620788e-07,-1.1905630154637054e-07,-0.20201598565826662,0.9793822244344511,-6.366916034269509e-08,-8.061776179190681e-07,-0.6898391443855382,0.15383116710666872,-0.29981489475959955,9.799998620334732
1727705390.1118531,5.744529733591301e-07,-1.2511247871438338e-07,-0.21221479056169812,0.9772230465285336,2.7086556494284105e-08,-8.192612046422011e-07,-0.6959076307200887,0.018028823067398288,-0.07050318552221287,9.799997220328878
1727705390.1390877,5.735004737811105e-07,-1.3137842473423045e-07,-0.22290781742505605,0.9748395277841639,3.270218381337834e-08,-8.679287560406074e-07,-0.7397190828430406,0.09693302841054427,-0.0562592496084857,9.799997013564939
1727705390.4009738,5.723435174683207e-07,-1.3784951782847263e-07,-0.2338614561824297,0.9722699313009153,9.841636500681592e-09,-8.880471422945217e-07,-0.7649981741667128,0.3187908100296378,-0.09350508178362675,9.79999697547639
1727705390.4077594,5.70442629033013e-07,-1.4707083902617796e-07,-0.2497608996998273,0.9683075404956762,4.784297607589818e-08,-9.90974718630893e-07,-0.8507162024928958,0.2917771133238855,-0.0240850852541774,9.79999811879271
1727705390.4472287,-5.693252934410572e-07,1.546710290786171e-07,0.26232158613943535,-0.9649805103964239,3.7392869670634654e-08,-1.0263431148968717e-06,-0.869024061780012,0.04014834077624952,-0.0933153472990011,9.79999732433219
1727705390.701914,-5.676025713342142e-07,1.6222929635609162e-07,0.27471287156692603,-0.9615263065538587,5.844878741483422e-09,-1.0098584792099986e-06,-0.8330084592338567,-0.504024377370285,-0.24388983476881032,9.799997190858676
1727705390.7188277,-5.651033619694649e-07,1.7114278804113066e-07,0.2889220789904237,-0.9573526164749865,5.2984962408530756e-09,-8.341012520287528e-07,-0.6849650416345239,-0.5105939586258348,-0.18952993200155982,9.799997819819383
1727705390.7495847,-5.634874169375783e-07,1.766956196523632e-07,0.29768317871448735,-0.954664718689284,5.058795149194838e-09,-7.02353943375752e-07,-0.5739369529479533,-0.5139787704680913,-0.15550174566130914,9.799997851192423
1727705390.782786,-5.621291180846746e-07,1.8128159554908483e-07,0.3051192399293698,-0.9523141547958713,5.633038030347219e-09,-6.04587177564883e-07,-0.5228931535686454,0.32458556498099184,-0.01849827338059706,9.799997840212034
1727705390.8426027,-5.602112061530856e-07,1.8753773488634238e-07,0.3161039521930829,-0.9487245603480307,5.3407765770237015e-09,-7.074383117712267e-07,-0.6106707736822268,0.3105339690148014,-0.04365168403274029,9.799997872872362
1727705390.8795352,-5.584983326739004e-07,1.9286200761748895e-07,0.3254020912490265,-0.94557573943625,5.161206377545278e-09,-7.855116714272252e-07,-0.6763502234062245,0.311018398452675,-0.06354866029175905,9.799997961133565
1727705391.1153882,-5.596340028827795e-07,1.9982738257435638e-07,0.33545813986019546,-0.942055113250379,6.634374335658937e-07,-8.487228726711246e-07,-0.7125575159239754,-0.11334542821087275,1.6892346329792034,9.800008908667984
1727705391.1214812,-5.666456771601265e-07,2.0912780160383164e-07,0.34529860823558584,-0.9384928721893431,6.436392355815178e-07,-8.38410759201522e-07,-0.6903426744970422,-0.07291318070426334,1.6972709177985132,9.799995832534636
1727705391.1626375,-5.743364592422938e-07,2.2096297376613378e-07,0.35783178207738614,-0.9337860652927646,3.7813200135278013e-07,-8.165455853141381e-07,-0.6497812676757213,-0.18696152948886915,1.0212791490792805,9.799991957557557
1727705391.1941953,-5.76845678665861e-07,2.2831534327393624e-07,0.36638513826155994,-0.9304632880778654,3.180231849720033e-07,-7.535504792572881e-07,-0.5934550447029747,-0.16376585776027847,0.9028392071736386,9.79999696465536
1727705391.2276368,-5.781164513505512e-07,2.347018681263643e-07,0.374084015294813,-0.9273948185646288,1.7523519588495113e-07,-6.820061151275924e-07,-0.5293114666765489,-0.23324307884961346,0.5371435450683876,9.799996708837842
1727705391.2657256,-5.776304430905658e-07,2.413888852148871e-07,0.38312654175744065,-0.9236958660731314,-6.234903046687802e-09,-6.114147543698539e-07,-0.4836030705209224,0.09914253503460412,0.10988249667300631,9.799995616620132
1727705391.4758325,-5.781253883746807e-07,2.466085764565116e-07,0.38976088746736565,-0.9209160931378366,5.58925432728538e-07,-6.048099684392928e-07,-0.47536262313499433,0.016774571250766663,1.6657075677207067,9.800007984774535
1727705391.505215,-5.83904826563302e-07,2.5402510793776917e-07,0.39616797829768785,-0.9181780508001252,5.421989278661598e-07,-5.932234561001538e-07,-0.45912434161502774,0.03908871289046393,1.6695238548596267,9.799996138814675
1727705391.5587747,-5.813452469927346e-07,2.594368408075556e-07,0.40455304135315046,-0.9145145360963436,-6.140623137238728e-08,-5.886642916459895e-07,-0.4557123158335054,0.10906949536830514,0.021075298866486177,9.799998307552585
1727705391.8429391,-5.814302455103279e-07,2.6434582574235657e-07,0.41073453813607375,-0.9117549776018434,5.380593874033678e-07,-5.798760225932324e-07,-0.44722316359616,0.04854509007586259,1.6721541286712926,9.800008199488719
1727705391.8455365,-5.862060498794209e-07,2.713115182503044e-07,0.4166668649382181,-0.9090592520084373,3.830610476875223e-07,-5.631645098735515e-07,-0.4245656184497581,-0.027703102625994454,1.2780613186794532,9.799994023560778
1727705391.8716247,-5.85793784829297e-07,2.755888580075134e-07,0.4220005084339692,-0.9065955939011904,-5.696375177213376e-08,-5.050810054507101e-07,-0.38020840094613684,0.022038911903966295,0.09404020557408065,9.799995617044443
1727705391.9134858,-5.829379408580211e-07,2.7975820133641136e-07,0.42876507424167004,-0.9034160232750563,1.2690238436245432e-07,-4.879545151015229e-07,-0.37376612523013075,0.16287296510883617,0.6166084733995071,9.800002212327696
1727705391.98202,-5.803540993575573e-07,2.8264755938889527e-07,0.43382464959126993,-0.9009973215313102,-9.57318409733436e-08,-4.891319253618342e-07,-0.37362867840404773,0.13759417034102217,-0.004480163356386809,9.799998372227376
1727705392.0139425,-5.78853987669394e-07,2.860400600634735e-07,0.43884612839835846,-0.8985622268876844,-3.6521791523978205e-08,-4.859113380573001e-07,-0.3707368051152535,0.1256846208789492,0.1575819243696037,9.799994664966212
1727705392.2558267,-5.719341796386442e-07,2.880726727540529e-07,0.4454492389193706,-0.8953071961878467,-7.964901817654766e-07,-4.77877077955267e-07,-0.36428643228427793,0.07953152696749935,-1.9634259629723068,9.799987476800212
1727705392.260459,-5.599115346995442e-07,2.859659497226177e-07,0.4502029633379867,-0.8929262521626856,-7.728444226738476e-07,-4.4853259401780314e-07,-0.34946837006077724,0.050629348761287815,-1.9611471521481267,9.800001418536228
1727705392.2836173,-5.483156288670046e-07,2.8374687459980793e-07,0.4547417691954247,-0.8906233341590786,-7.498506499771378e-07,-4.1970117135161544e-07,-0.3341770688801018,0.02345040539658603,-1.9588555837440838,9.800001402474331
1727705392.3285909,-5.33499025561765e-07,2.806255063152573e-07,0.4604513402351448,-0.8876849459550925,-7.202067511303276e-07,-3.821133575253605e-07,-0.31310666289294287,-0.009939714830881548,-1.9558189977726725,9.800001381862058
1727705392.3574755,-5.228556267862895e-07,2.7817158524028254e-07,0.46447163010849224,-0.8855879994805763,-6.987148626240065e-07,-3.5460230394327606e-07,-0.29683515729443327,-0.032730432367843655,-1.953573807035986,9.800001367002213
1727705392.3912325,-5.137385569303195e-07,2.762229641358168e-07,0.4682748724899677,-0.883582844895805,-4.5562632160436495e-07,-3.291172649622539e-07,-0.2844993325846254,0.029801077505057425,-1.3230673274531963,9.800004342176702
1727705392.5974386,-5.106655035204664e-07,2.7745617955602134e-07,0.4724020241066732,-0.8813831900028388,-1.1929771245096625e-07,-3.667176343291425e-07,-0.3266278702952578,0.22617437080654318,-0.38870979544244544,9.799999607042167
1727705392.6387525,-5.062549591529452e-07,2.7952712535709465e-07,0.47871368780194934,-0.8779710730489492,-1.1867218055627033e-07,-4.274398562468689e-07,-0.3804106436716143,0.2187021821648807,-0.4116939622669325,9.799999596856532
1727705392.6686792,-5.031493731504889e-07,2.8165396817789124e-07,0.48410239862999105,-0.8750113528636967,-1.1283808890124723e-07,-4.772042392960398e-07,-0.42461638367091614,0.2170207714415597,-0.4126618783651026,9.79999955065574
1727705392.92048,-5.004802128223359e-07,2.844413567100307e-07,0.49000032271536464,-0.8717222514875407,8.03177025442604e-09,-5.209674843345484e-07,-0.4582751133484559,0.07948313031855453,-0.11185679680689357,9.800001227241795
1727705392.922291,-4.984226629041636e-07,2.8967527531089894e-07,0.498910183981892,-0.8666536957278969,5.326997071807137e-08,-6.111752376461642e-07,-0.5437686536097229,0.28165160061176536,0.026352722014874003,9.79999946856359
1727705392.9498456,-4.966336810743255e-07,2.940913194079809e-07,0.5060935959147451,-0.8624785633125901,4.228166891606229e-08,-6.382029682245087e-07,-0.5557093792313795,0.022704157430212975,-0.04056528239558075,9.799999165216384
1727705392.9856045,-4.947463541223756e-07,2.9853141873792967e-07,0.5132730926306102,-0.8582253389297447,4.091998602802611e-08,-6.405857005247574e-07,-0.5564274736987633,0.007114619295567499,-0.04320075677185438,9.799999203689776
1727705393.055658,-4.921392169280716e-07,3.044239667960694e-07,0.5227925760460408,-0.8524599242373858,3.926123755852876e-08,-6.41727219264142e-07,-0.5564723360267666,0.006140380643824239,-0.04334353221269559,9.799999237360165
1727705393.0848517,-4.900019197112053e-07,3.088022220465179e-07,0.530168681601216,-0.8478921918787158,2.7307482904219234e-08,-6.789431559509564e-07,-0.6003157896980784,0.31404179996357395,-0.04066054873356015,9.799999258094799
1727705393.3024032,-4.877772004558875e-07,3.1368596877171783e-07,0.5381074696807657,-0.8428762371033053,4.066114803886374e-08,-7.276946364677548e-07,-0.6306122665626629,0.04995066710420055,-0.047077384685209944,9.79999922412717
1727705393.3041768,-4.850545094497016e-07,3.1863224876308716e-07,0.5466069642744491,-0.8373892921493171,2.483133229160387e-08,-7.925239396514071e-07,-0.6963677494323534,0.31615484879729205,-0.06995533053578634,9.799999338480047
1727705393.3337495,-4.813522173316241e-07,3.261807948886472e-07,0.5587963799017669,-0.8293048931535023,4.46549538173696e-08,-8.567887121029863e-07,-0.7387848038226639,0.03915495171046212,-0.0646199886448006,9.799999185181571
1727705393.3664272,-4.782501330974266e-07,3.3186065287729494e-07,0.5679649897210397,-0.823052714260053,4.068376896947672e-08,-8.605248715180222e-07,-0.7400191195223078,0.012494291238086168,-0.07632514923912961,9.799999392910866
1727705393.3960438,-4.7487350774719e-07,3.3743272385720883e-07,0.5773349867016891,-0.8165073870638409,2.0350296187800898e-08,-8.982707264017458e-07,-0.7839007410837626,0.318944872476389,-0.100477251783014,9.799999445623914
1727705393.4366705,-4.7012100610821876e-07,3.4569873759843746e-07,0.5909114287860605,-0.8067364398176617,1.158070255998531e-07,-9.969860357641537e-07,-0.8630121202483372,0.20867997328534768,0.12002500716355753,9.800000818886788
1727705393.6314156,-4.6622563952861084e-07,3.5226644770735403e-07,0.6013921275970889,-0.7989540092295082,4.471710185129355e-08,-1.0179261448017595e-06,-0.8715754594847841,0.026780941705398714,-0.10186162915698617,9.799999426842254
1727705393.6619015,-4.695766979839796e-07,3.6442288314615623e-07,0.6116085380080124,-0.7911605375872511,6.61508081912526e-07,-1.0117810486371812e-06,-0.8492796945462622,-0.07207051393197438,1.6387073978185207,9.799997317456377
1727705393.718569,-4.7346527786198407e-07,3.8037823021583205e-07,0.6246786653144588,-0.7808819149529443,6.352413267157002e-07,-1.0031423317706584e-06,-0.820836968975484,-0.01038080938955647,1.651043423440303,9.799997288900478
1727705393.9754615,-4.75971353523375e-07,3.9214467281850506e-07,0.634087183639716,-0.7732615621789775,6.161443662045466e-07,-9.960096596117906e-07,-0.8004166687833526,0.03329126950991587,1.6596201714946734,9.79999726825085
1727705393.9774408,-4.777468051130964e-07,4.034151052231282e-07,0.6432064116562537,-0.7656928313650944,5.639401436373165e-07,-9.921214530673793e-07,-0.7849750316606484,0.09443312096346153,1.5739381984793663,9.799997373767917
1727705393.995201,-4.791538671846126e-07,4.144924840343545e-07,0.6520625955161896,-0.7581651347353614,5.346414880996767e-07,-9.882857593830573e-07,-0.7696060595960447,0.12472192394060286,1.5450930103839584,9.799997161903068
1727705394.035175,-4.7312932164952993e-07,4.223249901730222e-07,0.6633740411771337,-0.7482879669565161,-5.899890493354612e-08,-9.621415530285864e-07,-0.7471292046050042,0.20773790489803332,-0.06247505641189664,9.79999930388547
1727705394.110416,-4.696020030978571e-07,4.288926678850951e-07,0.6714815472321227,-0.7410212761630735,1.6537742270614557e-07,-9.225089835957603e-07,-0.7044752534490396,-0.09300167022086447,0.534835155671916,9.799997381897448
1727705394.1415703,-4.661275089735106e-07,4.3490431709821326e-07,0.6789720006176966,-0.7341641658217841,2.8082994160064144e-07,-8.665091942998793e-07,-0.6626677395493173,-0.03513015076416611,0.8839327602435283,9.800004738290475
1727705394.3809876,-4.6365505110425256e-07,4.44032040285233e-07,0.6879616433712772,-0.7257470477029028,1.3803500774248354e-07,-7.74549426393941e-07,-0.5836518718786798,-0.11074115989898159,0.5292038689728287,9.799997871021564
1727705394.383577,-4.640371916477981e-07,4.523282315790857e-07,0.6941014086319454,-0.7198772357386565,2.5960350901662746e-07,-7.355640177319539e-07,-0.5512679981609901,-0.027851921177948952,0.9163324652173056,9.799995338186918
1727705394.4036913,-4.6278843888813763e-07,4.5857668891454674e-07,0.6996440011131817,-0.7144916176596571,1.746429989405323e-07,-6.684850511776216e-07,-0.49559069288797514,-0.07693718327026228,0.709551283692075,9.799997065527041
1727705394.445894,-4.5837647902692653e-07,4.629947163077277e-07,0.7060760949041045,-0.7081359673145725,-1.0301205483498722e-07,-5.830041068088335e-07,-0.4390378303836738,0.1288880366135289,-0.008175934215635589,9.799999032923454
1727705394.4804223,-4.4921909317236214e-07,4.599597674110787e-07,0.7106485371651251,-0.7035471957336298,-8.031967917414007e-07,-5.613369075324598e-07,-0.42729511634355355,0.1228541803118522,-1.9747778954401434,9.800002297139859
1727705394.5064778,-4.380183018138394e-07,4.5445267106075026e-07,0.7150447273065592,-0.6990787065493339,-7.793636555602692e-07,-5.30937967265269e-07,-0.4131392058012668,0.08964118199477371,-1.972262791727749,9.800002255244943
1727705394.5376866,-4.272700819012986e-07,4.4895883251138006e-07,0.7192614793834575,-0.6947394650332855,-7.561973413104346e-07,-5.009758868835838e-07,-0.3984339775068284,0.05802773794726909,-1.9697058556428444,9.800002214244136
1727705394.796627,-4.136219490765114e-07,4.416606304964775e-07,0.7245998911808444,-0.6891697887315884,-7.263169913074284e-07,-4.6176905187804567e-07,-0.3780234542074371,0.018559719601188945,-1.9662583283613733,9.800002161475433
1727705394.8301644,-4.0388206036024205e-07,4.3621185019847395e-07,0.7283876827446445,-0.6851652235961292,-7.046443014734269e-07,-4.329656046329243e-07,-0.36215366863183607,-0.008892812664432712,-1.9636642516913247,9.800002123274437
1727705394.859431,-3.953811003346392e-07,4.3168191279970944e-07,0.7319469395511254,-0.681361635023134,-4.4000413649314866e-07,-3.9868573743660406e-07,-0.33375002325688247,-0.20577994002456088,-1.30813240397404,9.800006117773087
1727705395.0979986,-3.983390137504069e-07,4.40134084875299e-07,0.7360207469226042,-0.6769589796281156,6.287193844273346e-07,-3.4339432116691526e-07,-0.2910510149888149,-0.05080012811577461,1.6987940951427556,9.799997528077009
1727705395.1172204,-4.027538948328666e-07,4.4865284920517065e-07,0.7388510165538378,-0.6738688116666307,6.101016903713778e-07,-3.2869948436497914e-07,-0.2735415959474895,-0.03715671354976218,1.7011915123255237,9.799997507078048
1727705395.1480327,-4.070284220656735e-07,4.569139703258186e-07,0.7414950124023104,-0.6709583791727496,5.920318069899482e-07,-3.1356225046891704e-07,-0.25652900416836116,-0.023108594121261913,1.7036777113341477,9.799997486566708
1727705395.21997,-4.1252829911815705e-07,4.6753283184351724e-07,0.7447471790116394,-0.6673467159983754,5.68755471149414e-07,-2.935068531697957e-07,-0.23505827434448923,-0.00638679155878952,1.706688066699711,9.79999746007587
1727705395.2514365,-4.1595447655350946e-07,4.7460578649954064e-07,0.7470397432506194,-0.6647793784434427,5.344736999674932e-07,-2.871095164431154e-07,-0.22712737475156716,0.01623907434321155,1.6572251609665811,9.80000005273756
1727705395.2809093,-4.140184754285901e-07,4.756307218761184e-07,0.7493022696098934,-0.6622281395086324,-7.195319577330829e-08,-2.8538358592891447e-07,-0.2273566534024716,0.08149411688790525,-0.00149084663659487,9.799999493985975
1727705395.4713852,-4.1580905545242595e-07,4.808769209968362e-07,0.7515076437282657,-0.6597243829187955,5.44193711188409e-07,-2.7788522586120095e-07,-0.21755480030172478,0.013212152512199858,1.7091552503124232,9.79999744637446
1727705395.5088623,-4.162526449466459e-07,4.851653230290109e-07,0.7539744057614836,-0.6569037946733213,-6.77819280867855e-08,-2.267159931353408e-07,-0.17726539047805182,0.032546611063685164,0.05549996180660301,9.799996807740161
1727705395.5377507,-4.1413499298947506e-07,4.852601287637244e-07,0.7557082539966286,-0.6549084171401067,-8.903373950318758e-08,-2.2273332239989957e-07,-0.17610575046121513,0.07314920241570097,-0.004141213524913853,9.79999976089084
1727705395.5686426,-4.128843660418935e-07,4.863435465488929e-07,0.7574359064628327,-0.6529095248198021,1.733962960074985e-07,-2.22624091774669e-07,-0.17623779665165434,0.07552282710942793,0.7165433788419351,9.800003983104155
1727705395.6172974,-4.1094194316295067e-07,4.874773965893918e-07,0.7597045368504872,-0.6502684189535733,1.3593402399637704e-07,-2.1741340817971722e-07,-0.16744009426820713,-0.049137436255831814,0.5944692755808213,9.800003375281234
1727705395.6410232,-4.0904222298010196e-07,4.876406618355381e-07,0.7613063562434309,-0.6483923441427614,-8.550578198657331e-08,-2.0695328602332919e-07,-0.16410349251373005,0.06892792915551166,-0.0022936592349195955,9.799999715157657
1727705395.860256,-4.109991370602974e-07,4.923100811013931e-07,0.7628623637207103,-0.6465609128442884,5.094640821023808e-07,-2.0082615655944839e-07,-0.15605308084623692,0.008689007979776661,1.6493358118264176,9.799997086216864
1727705395.9153411,-4.112743504098643e-07,4.950928792879606e-07,0.7643326087165998,-0.6448221950678055,1.2015518041878047e-07,-1.2588368070643482e-07,-0.10055257522285456,0.041213372967076674,0.6033258145891978,9.800000679338085
1727705395.9521954,-4.097428263647936e-07,4.946883602848157e-07,0.7653025678738585,-0.6436707074314205,-9.734557248484232e-08,-1.251376449969822e-07,-0.10035016430765413,0.049307139090152684,0.0003105407180848414,9.799999736897295
1727705396.200668,-4.073519335127982e-07,4.931181563141547e-07,0.766061129116334,-0.6427677235647401,-3.019692683660798e-07,-8.199781207046728e-08,-0.061412210297907666,-0.14147628365174447,-0.6003918874734975,9.799997594292114
1727705396.212217,-4.0600616155379783e-07,4.922635169021688e-07,0.7666116300543536,-0.6421110563329366,-8.97878263532244e-08,-6.704754393825963e-08,-0.05661468789752267,0.02368410870770959,-0.002593160166247115,9.799999897594294
1727705396.252663,-4.044213107908754e-07,4.913274615218835e-07,0.7673369691292139,-0.6412440844227625,-8.568705067268483e-08,-6.673519704271211e-08,-0.056509443354195554,0.027319748075014808,-0.0004372065723732184,9.799999829882228
1727705396.284705,-4.029817963785459e-07,4.903122827272964e-07,0.7678636870629517,-0.6406132671820703,-9.347195759970819e-08,-6.33213640310561e-08,-0.05360963882092149,0.0172577016316763,-0.03244521962403683,9.800001229412779
1727705396.3662696,-4.0187222374809765e-07,4.896563831530983e-07,0.7683765337430957,-0.6399980487412005,-7.980880167366467e-08,-6.26043156339116e-08,-0.05337053347991349,0.025499312272539,-0.0004999405988327705,9.799999843607635
1727705396.409112,-4.00303140036805e-07,4.88542048332421e-07,0.768930514709423,-0.639332357657817,-7.704064143093547e-08,-4.3595962615792374e-08,-0.03834693622051354,0.006762543257333569,-0.004888059685436679,9.79999998625548
1727705396.6168365,-4.0144465082413453e-07,4.903136116555814e-07,0.7691734297670548,-0.6390400886798759,1.5162507013854224e-07,-1.893507794426994e-08,-0.009865652835453056,-0.24020481714093153,0.6006838620010239,9.799995313640997
1727705396.6242359,-4.0117657120741407e-07,4.898450034604072e-07,0.7691250546733626,-0.639098310335191,-7.64910684108334e-08,1.4932203841521386e-08,0.006823864377156003,-0.016277941600363322,0.0043182253914732845,9.799999582548878
1727705396.6649537,-4.003655670723795e-07,4.885239714798014e-07,0.7690406472364859,-0.6391998771101947,-7.562907312877677e-08,1.4732695643957323e-08,0.0063637433862406,-0.002620972999083451,9.534092910303582e-05,9.799999861322906
1727705396.9003406,-3.998061745964107e-07,4.875318760138412e-07,0.7688899146897983,-0.63938118449632,-7.405895895894718e-08,3.2800906388079904e-08,0.02029299212584142,-0.007195937472943967,-0.0018838187502320568,9.799999891217164
1727705396.9142683,-3.9934317695980793e-07,4.865140182757904e-07,0.7686959600293229,-0.6396143533678723,-7.105817575894218e-08,3.229047157432288e-08,0.020210710397658677,-0.010032798394416134,-3.06605557502149e-05,9.799999870204823
1727705396.94413,-3.988978689234471e-07,4.855238469325215e-07,0.76850203402471,-0.6398473440591034,-6.894464996852502e-08,3.2039388875603995e-08,0.020208934928658204,-0.010094036537849195,-3.3588215840180206e-05,9.799999873817605
1727705396.9847038,-3.983328904059432e-07,4.842481163539931e-07,0.7682264732547631,-0.640178167223903,-6.529323392505564e-08,3.488125430482531e-08,0.025484320250610898,-0.08395208432019975,-0.0076823171452700505,9.7999998997391
1727705397.0166452,-3.979760946487699e-07,4.832776130207546e-07,0.7679646053515945,-0.6404922832687194,-6.420067300013063e-08,4.0816150389045423e-08,0.027475831224830907,-0.015259690047819012,-0.00029877183954970594,9.799999883033767
1727705397.0641468,-3.976718367727924e-07,4.823016060401029e-07,0.7676399120074758,-0.6408813973683148,-6.223207805084711e-08,4.949561478133138e-08,0.034538531410182816,-0.022696730797146264,-0.000930363993865311,9.799999888611826
1727705397.3249948,-3.973720427101068e-07,4.809639758135346e-07,0.7670401449065094,-0.641599108557214,-5.96831606709236e-08,8.050652827156946e-08,0.06182090210099799,-0.11063220358426427,-0.012327943834518991,9.799999936417114
1727705397.3409948,-3.9734533936125873e-07,4.798414884823647e-07,0.7664256915230954,-0.6423329816948191,-5.766670668222952e-08,8.707509560849855e-08,0.06404397661166923,-0.03363847916696583,-0.000761093421298149,9.799999895421832
1727705397.3723564,-3.9733939258854666e-07,4.787353929617303e-07,0.7658078653197861,-0.6430694468049041,-5.5947973296674905e-08,8.689325524045585e-08,0.06409146039675082,-0.03200051988234525,-0.0005121553944529147,9.799999897504199
1727705397.412583,-3.9735032582184426e-07,4.772944618751802e-07,0.7649802873424099,-0.644053693396085,-5.375832531594918e-08,8.695249734050596e-08,0.06490970385629288,-0.04340466908419306,-0.002141890655508599,9.7999999021914
1727705397.4739075,-3.9737980791367053e-07,4.762321402724477e-07,0.7643501788287399,-0.6448013679607764,-5.213477150104804e-08,8.759749881929891e-08,0.06521821385655974,-0.032762472489824716,-0.0005612774965151231,9.799999904671155
1727705397.505254,-3.9749297301032e-07,4.75127845589024e-07,0.7635674400127687,-0.6457280887122405,-5.041478084142015e-08,1.0904967192504197e-07,0.08273672116420158,-0.054753642288028904,-0.002887600992328073,9.799999916199967
1727705397.74044,-3.976807096386046e-07,4.739931906869129e-07,0.762761422763424,-0.6466799919152706,-4.8874317508512984e-08,1.1001674784929844e-07,0.0833533550333968,-0.04505099493508645,-0.001392776593545028,9.799999910961537
1727705397.744821,-3.979475837677383e-07,4.7250948779987506e-07,0.7616927777950219,-0.6479383552889285,-4.6947650941676556e-08,1.0761359786154101e-07,0.08143549643101874,-0.03467409262347551,4.5858892484394934e-05,9.799999910686342
1727705397.7779047,-3.981456857160848e-07,4.714289743710174e-07,0.7609021692568035,-0.6488666186666641,-4.557334125801866e-08,1.0679069736739308e-07,0.08127020562671823,-0.04037593161149513,-0.0008115936093849551,9.799999916602344
1727705398.0676255,-3.983521431436399e-07,4.7036684466272507e-07,0.7601072252370424,-0.6497976655406388,-4.4243165259484345e-08,1.07081854684991e-07,0.08231526171434203,-0.05517799849322517,-0.002933556571466862,9.799999919955306
1727705398.0859864,-3.986539204749415e-07,4.689665517148849e-07,0.7590202522920962,-0.6510670139164354,-4.253510214112733e-08,1.099455123730814e-07,0.08622415045955292,-0.0903964749448971,-0.007910725091706214,9.799999925087278
1727705398.115814,-3.9892366974987054e-07,4.679079303021218e-07,0.7581659625929087,-0.6520616329498232,-4.115015993515683e-08,1.1373564840507919e-07,0.08755038756994875,-0.04464614495165686,-0.0011228135283546,9.799999925604437
1727705398.1510315,-3.9909748744113906e-07,4.667257211188673e-07,0.7574106157286897,-0.6529388632797943,-7.481158943732065e-08,9.560321605867914e-08,0.056374933820412795,0.39302551364526656,-0.03695130456854442,9.799999324895893
1727705398.1910286,-3.989773103925318e-07,4.660350918591774e-07,0.7572850702168374,-0.653084468063897,-3.7798591738630404e-08,5.107714840357259e-09,0.0016153798446161749,0.017942761651936787,0.006165582523294313,9.799999766357752
1727705398.2309387,-3.9852501379206646e-07,4.6567204552749524e-07,0.7575207937790237,-0.6528110346739109,-3.7961660218747414e-08,-3.1220335237380714e-08,-0.027130683255878366,0.03576754887622004,0.003211131699986389,9.79999991805507
1727705398.4797015,-3.9787145339834914e-07,4.6527037990371976e-07,0.7578855627701435,-0.6523875180781802,-7.151864373026283e-08,-4.944745077985129e-08,-0.05648575537627617,0.41672761184315404,-0.04108141982680866,9.799999337650894
1727705398.4833431,-3.971540956838858e-07,4.6541209032324614e-07,0.7586237927900114,-0.651528925691349,-3.518184067002652e-08,-9.555992884837911e-08,-0.07775510856192867,0.05541568943322254,0.003278957692378157,9.799999851757343
1727705398.5214813,-3.9596866173192814e-07,4.655123221892019e-07,0.7596217758265694,-0.650365095688349,-3.4428606827625494e-08,-9.473717873920436e-08,-0.07654698862668817,0.038134440947029384,-0.000832151063231225,9.79999993849873
1727705398.5536494,-3.950962814586562e-07,4.6559586306211797e-07,0.7603821579072849,-0.6494759225220653,-3.332145237630501e-08,-9.707676291837326e-08,-0.08091031171733738,0.09958823390950197,0.007777239949958177,9.799999937326291
1727705398.636048,-3.941944381344778e-07,4.6572293678987254e-07,0.7611841762169451,-0.6485357737831878,-3.242401842509413e-08,-1.0202495443409629e-07,-0.08256006250489142,0.042688885659116486,-0.0007356638200123615,9.79999994148877
1727705398.6759624,-3.9292984481582553e-07,4.6597585015978496e-07,0.7624098608496412,-0.6470944321185734,-3.109486807550012e-08,-1.2386057064755717e-07,-0.1005170247702632,0.06429903316825376,0.0006772023972860079,9.799999937772373
1727705398.8854218,-3.9187541350085516e-07,4.6620422125067357e-07,0.7633648373902573,-0.6459675882238791,-4.076779266213802e-08,-1.2084951244179735e-07,-0.09373118380148021,-0.04950171984643171,-0.04419985097771512,9.7999997812357
1727705398.902069,-3.9075268178476296e-07,4.6618828465253924e-07,0.7642179929958453,-0.6449580290073393,-2.9718021007256e-08,-1.0800368831876043e-07,-0.08744821464109352,0.03885250612916091,-0.004610229648522459,9.800000079157224
1727705398.9435232,-3.895614806131593e-07,4.664639607107548e-07,0.7653432173802739,-0.6436223734532861,-2.7556198673670538e-08,-1.0742975440111735e-07,-0.0873102868384341,0.043606165751463616,-0.0010385745997842262,9.79999994995691
1727705399.2078917,-3.8880025154779087e-07,4.668244797063989e-07,0.7661870918429158,-0.6426175692376657,1.1056663158464045e-08,-1.0763800088367017e-07,-0.0878121542323884,0.05066587241938999,0.10473114192681535,9.800000569238037
1727705399.2107005,-3.8816645824669557e-07,4.6704223464108185e-07,0.7667136772301048,-0.6419892032954464,-2.618002293627746e-08,-6.277311277463492e-08,-0.050701902100466045,-0.0032390702993616706,-0.0030303736099178587,9.79999989733207
1727705399.2353776,-3.8756834354580944e-07,4.670336118713162e-07,0.7671948229064806,-0.6414141436740582,-2.5901831081927602e-08,-6.02877540642441e-08,-0.04990110042092383,0.024382007810143668,-0.00042546464112644096,9.799999953823919
1727705399.2755241,-3.867829123890737e-07,4.6703229111625354e-07,0.7677962312177604,-0.6406941136981327,-2.5143308509570178e-08,-5.3559278530966824e-08,-0.037974054740909514,-0.14178542787327336,-0.02381380393008636,9.799999963428428
1727705399.3063273,-3.863110068703108e-07,4.6695046199151375e-07,0.7681224729083085,-0.6403029490896146,-2.413712756525625e-08,-3.97852903214781e-08,-0.03347797407791907,0.013291032147194902,-0.0006659428585773626,9.79999995861116
1727705399.3372774,-3.858608663658944e-07,4.668643670397683e-07,0.7684260524623269,-0.6399385922858523,-2.352844194729723e-08,-3.6534460404999396e-08,-0.028057806744742588,-0.057901269555674435,-0.01067225147165649,9.799999961530938
1727705399.5960984,-3.847436382889297e-07,4.659916572054061e-07,0.768741258583081,-0.6395599091185558,-2.084551811024438e-07,-2.6638579100654625e-08,-0.0197589687457048,-0.07530850855962413,-0.527693550479887,9.79999692170364
1727705399.5993767,-3.8385284475580875e-07,4.651469589350044e-07,0.7689011507700678,-0.6393676722701123,-1.7368783300655163e-07,-1.7792353493383134e-08,-0.014486552945344814,-0.03404395040975351,-0.4328088087626199,9.799997515553937
1727705399.6067019,-3.835265430616055e-07,4.6491171486945044e-07,0.769030233606853,-0.6392124058544436,-1.775134336264302e-08,-1.4463700362952635e-08,-0.013338569195931878,0.005637797408352516,-0.0013438371665303467,9.80000001543469
1727705399.661894,-3.830676262881696e-07,4.6456080394715094e-07,0.7691907245903061,-0.6390192713869254,-6.176756449118237e-08,-1.2727616809105163e-08,-0.010273660934064014,-0.03613942776911124,-0.13097789410956226,9.799999226305058
1727705399.733118,-3.8284544714688554e-07,4.643895719446766e-07,0.7692793555233527,-0.6389125708304799,-1.5737786476677144e-08,-9.310687279819171e-09,-0.009124879822460021,0.0035628705023610535,-0.00048474037002160233,9.799999979900353
1727705399.7644248,-3.8256485166701507e-07,4.641305649002608e-07,0.7693503294061252,-0.6388271054380243,-1.8602405980659896e-08,-6.156640520004986e-09,-0.00624414054426815,-0.00539579601838522,-0.011531663079139337,9.800000432882662
1727705399.9693797,-3.8012161250316644e-07,4.529100321156704e-07,0.763855395101158,-0.6453874304435314,6.416623676659186e-09,1.2335396989148455e-07,0.10038907676223996,-0.043121743295734295,-0.0015591814702554112,9.799999985672061
1727705399.9723213,-3.7723731251143193e-07,4.4797365324049396e-07,0.7627447685004859,-0.6466996351667418,-1.6499269434365503e-07,1.4782451041159068e-07,0.131347979041045,-0.2863655252174577,-0.5374526666210756,9.800002734705654
1727705399.985949,-3.7842780120287297e-07,4.4675839786450583e-07,0.7609660972212785,-0.6487916451985744,-5.450598953336758e-08,1.6687669405280628e-07,0.13785833827954216,-0.05607247542211824,-0.20342062969890062,9.799998792076394
1727705399.991645,-3.824015560016002e-07,4.6397904700301887e-07,0.7694081437076244,-0.6387574722819499,-1.4396543323805752e-08,-5.492217141417884e-09,-0.006008609834603331,0.002743429997299947,-5.127364406539499e-05,9.799999967081467
1727705399.9960358,-3.8042453758625147e-07,4.6166495472201844e-07,0.7695007604616116,-0.638645895350971,-1.8596753948788827e-08,-8.042430265238827e-09,-0.008285174564140612,0.009249690141032175,-0.027643663286493238,9.80000124460541
1727705400.0166042,-3.795458815556861e-07,4.460824676591084e-07,0.7596226387210451,-0.6503640878324489,1.8018276952381818e-08,1.6664906439650075e-07,0.13788275937674957,-0.054505703292847575,-0.0030582770057954855,9.799999999969222
1727705400.019519,-3.8030219000416294e-07,4.615986078715678e-07,0.7695814020710866,-0.6385487182556573,-8.014024510189091e-09,-8.551393314258257e-09,-0.008434517553476543,0.004089255781329923,-6.331396022034685e-05,9.799999970435529
1727705400.0984406,-3.8114238401843414e-07,4.45966063081186e-07,0.7582746335515935,-0.6519352576075728,3.359239794104741e-08,1.669853479107852e-07,0.13810079679391285,-0.05556260175068412,0.044881607030186364,9.799997838374573
1727705400.1385083,-3.821245832512878e-07,4.4447106986320844e-07,0.7564763189826528,-0.6540210843834564,-1.4789718633256462e-07,1.6628261068016806e-07,0.13645492761437514,-0.03282072550060705,-0.45251106442944977,9.799997282221083
1727705400.3260484,-3.8018647446264425e-07,4.615423721963872e-07,0.7696622111965665,-0.638451314240682,-7.749008594265941e-09,-8.604538973121833e-09,-0.00843773486565592,0.0039779403139625445,-7.639928203588595e-07,9.79999996790297
1727705400.3300412,-3.7837020194279103e-07,4.587582850561113e-07,0.7689948294830732,-0.6392549978122545,-1.9674547655202393e-07,9.10655520871479e-08,0.08427356259301311,-0.32265151342236953,-0.5794068899058641,9.800000685857647
1727705400.3565385,-3.7815341623314766e-07,4.570968638725143e-07,0.7680646106879271,-0.640372355593565,-2.37829364389341e-09,1.2154729758146076e-07,0.09843598679793938,-0.054672138507184935,-0.01647205741219451,9.800000588772214
1727705400.3798394,-3.831597717368828e-07,4.437315171269125e-07,0.755141559207205,-0.6555617633432929,1.6519622560724e-08,1.6384930430361138e-07,0.13583022927460497,-0.05301491265869686,-0.0036155598488019423,9.800000033989779
1727705400.3826096,-3.813075565934196e-07,4.3968487599495055e-07,0.7537968230094512,-0.6571075632044722,-2.44527100856142e-09,1.6534375452112244e-07,0.13912905026089709,-0.07008828147891381,-0.0821587824224977,9.80000344770773
1727705400.3876364,-3.7890681384752764e-07,4.565083182817981e-07,0.7671156090204906,-0.6415088794371984,2.5293584532348006e-09,1.223084536050512e-07,0.09874181146717859,-0.04402098062094878,-0.0013270043277071395,9.799999972645248
1727705400.4084535,-3.829117105166817e-07,4.3892742935738413e-07,0.7519467101739937,-0.6592238960005685,2.7022644738807308e-08,1.6871253767452878e-07,0.1434366628419453,-0.10448813504732019,-0.0034739895482383755,9.800000021324204
1727705400.426473,-3.795047364147414e-07,4.552058727749729e-07,0.7658085167677025,-0.643068671018656,1.4918887118260593e-09,1.2728477965573022e-07,0.10323317481791904,-0.048882211188916724,-0.008265592866002784,9.800000261111796
1727705400.4801323,-3.793444737628278e-07,4.5348002700745077e-07,0.7648266024070038,-0.6442361898016977,-3.0469379775987944e-08,1.2423185819302855e-07,0.10060890953226091,-0.03575902048319231,-0.10207993959583936,9.800004559604327
1727705400.6664937,-3.8414443631032206e-07,4.383260398484419e-07,0.7505139476272042,-0.660854609136299,2.3975172932125718e-08,1.7296655821516196e-07,0.14486711948305497,-0.05444448079340485,-0.002915152254919619,9.799999978159617
1727705400.669237,-3.84904113265124e-07,4.373906404503353e-07,0.7493340743569377,-0.6621921511217811,4.752777156427023e-08,1.3911235907960226e-07,0.11586573389529133,-0.020697226093524198,0.06577984090381628,9.800000680107049
1727705400.6838882,-3.859392835480402e-07,4.3696774508365234e-07,0.7481873449486657,-0.6634875257744687,2.3309297724481186e-08,1.3739217510516157e-07,0.11527170287920957,-0.04169381125004903,-0.001492536631406889,9.799999969925482
1727705400.7275379,-3.8728700481534646e-07,4.3637287035078336e-07,0.7466558885473732,-0.6652104810488122,2.232335154145401e-08,1.373402304954722e-07,0.11525870560183288,-0.04214942592225399,-0.0017410116097872233,9.79999997928816
1727705400.7550416,-3.880544891693502e-07,4.357079261551302e-07,0.7455710675168585,-0.6664261274000528,2.1131431973521824e-08,1.286317295778558e-07,0.10782967615035771,-0.03349035742686404,-0.003675658610197619,9.800000111798637
1727705400.7964919,-3.8895919092306356e-07,4.3524972503145853e-07,0.7444876159971443,-0.667636270454615,9.168005320666336e-09,1.290793903586688e-07,0.10946700851616359,-0.06429857276489878,-0.03931876750412379,9.799999778314351
1727705401.063588,-3.9022493630925466e-07,4.346647438870239e-07,0.743015806970705,-0.6692738681521421,2.0855583410054332e-08,1.3108708396884428e-07,0.11015220067830025,-0.04020358809631946,-0.0016240821819397473,9.799999981857342
1727705401.0659516,-3.8425939882258833e-07,4.265791651486796e-07,0.7419572254800448,-0.6704472205607419,-6.598431370136175e-07,1.2309234016124634e-07,0.10299346095228684,-0.00492810620953984,-1.920233798679437,9.800002320118345
1727705401.0812628,-3.784166825926271e-07,4.1878185266870677e-07,0.7409665416561753,-0.6715419451871708,-6.402007206224531e-07,1.1258308292057145e-07,0.09618587591826273,0.0014956731706865537,-1.9199724396167899,9.800002279159127
1727705401.1196039,-3.7081871333930946e-07,4.0881330784935276e-07,0.7397458220898854,-0.672886408467473,-6.14909116060876e-07,9.978749612802223e-08,0.08764072896558513,0.008770336714522296,-1.919668520161537,9.800002226502476
1727705401.1841245,-3.6526489026945164e-07,4.0164304550386017e-07,0.7389014205099038,-0.6738135430281522,-5.965930808455783e-07,9.104074306319444e-08,0.081618906213117,0.013340561401775008,-1.9194694588960055,9.800002188435151
1727705401.2133605,-3.6427275569669773e-07,3.995919189067415e-07,0.7381143189578458,-0.674675664411503,7.387203180316129e-07,8.16586238379066e-08,0.07600961636484689,0.021623313358449834,1.7328990779295015,9.800024204218511
1727705401.2430868,-3.7204147588089456e-07,4.0720363487912644e-07,0.7373789101146391,-0.6754793430726382,7.167680027593841e-07,7.796175030071636e-08,0.07097939024500116,0.01613607019396521,1.732662456597507,9.79999793187722
1727705401.428462,-3.820437420328152e-07,4.1699741785700966e-07,0.7364714075592826,-0.6764686732194841,6.884441173790934e-07,7.328313056001421e-08,0.06489804867138911,0.009817751191765015,1.732322397639505,9.799997889997494
1727705401.447496,-3.8928652017762973e-07,4.2408588841836444e-07,0.7358408131835485,-0.677154559648713,6.679356490275098e-07,6.996106659263428e-08,0.060760373659802185,0.005732461211365492,1.7320679021163332,9.799997859671523
1727705401.494642,-3.963142222981368e-07,4.309619590280088e-07,0.7352494059308052,-0.677796659093312,6.480373053392593e-07,6.67964481645325e-08,0.05695028728571823,0.0021358469384786245,1.7318151365046803,9.799997830312352
1727705401.7602732,-3.919249718042146e-07,4.2512259447183343e-07,0.7343840131900851,-0.678734205098351,-5.359648772320797e-07,7.442846258705404e-08,0.06495865394775119,-0.06228550531736264,-1.5660288018890396,9.80000450673967
1727705401.7706769,-3.916526177513316e-07,4.2398198070928003e-07,0.7337074224686024,-0.6794655386508918,-1.784399127785634e-07,7.761677421347173e-08,0.06742607910733349,-0.038383760519179966,-0.5876084706081697,9.799996725418293
1727705401.80312,-3.9231575122395816e-07,4.238268909312883e-07,0.7330150236767633,-0.6802124484775477,3.3220073686045127e-08,7.8809578576549e-08,0.06795473308351244,-0.018529983218430687,-0.00229894576280447,9.800000056667509
1727705401.8404338,-3.9303600329231227e-07,4.2342983895164577e-07,0.7320791018428431,-0.6812196331908251,3.180497716185511e-08,8.0174316703255e-08,0.06913085607350422,-0.019172528122957264,-0.005192523825585321,9.80000018346581
1727705401.895321,-3.9440126265015e-07,4.240090932713617e-07,0.7313746721923827,-0.6819758711825141,2.0543475403203264e-07,7.97457599360483e-08,0.06839531797248347,-0.006908848194277725,0.48041700746675126,9.800002839314496
1727705401.9240215,-3.952405912085066e-07,4.240318962139515e-07,0.7306772782604279,-0.6827230148703037,2.998285330599812e-08,7.929334145029149e-08,0.06810554257750394,-0.018122088422190364,0.0007713912548409037,9.79999992413874
1727705402.185761,-3.9557274377764135e-07,4.235125617187241e-07,0.7299807143740534,-0.683467743673109,1.5054310832968627e-08,7.90469280163245e-08,0.06789990534454551,-0.01757784728597841,-0.04097744477495102,9.80000180628856
1727705402.2028236,-3.9654033892892323e-07,4.233849441996133e-07,0.7290520929539598,-0.6844582133038615,2.8645582537343123e-08,7.903730731682555e-08,0.06788390952694408,-0.018063921281303585,-0.0006163562313400445,9.799999986297083
1727705402.235051,-3.972620371400316e-07,4.232838187459239e-07,0.7283547604223535,-0.6852002210812247,2.7802890702645132e-08,7.908617106083004e-08,0.06788381677237597,-0.01806717357894906,-0.0006009207384406783,9.799999986032697
1727705402.316206,-3.979752984272689e-07,4.231726715973174e-07,0.7276566728171651,-0.6859415182829479,2.6978698325247065e-08,7.913362810055546e-08,0.0678838147800104,-0.018067241188257893,-0.0006008792395266567,9.79999998645678
1727705402.3564525,-3.989135837245327e-07,4.2300939079578236e-07,0.7267247158534952,-0.6869288080778955,2.591866183243973e-08,7.919500610062464e-08,0.06788381473675868,-0.01806724573647042,-0.0006008689813826358,9.7999999870152
1727705402.388482,-3.9884992114914173e-07,4.2205535496988077e-07,0.7260000899925824,-0.687694604697772,2.3484161605512685e-08,8.21447264470046e-08,0.07057336167597947,-0.020477650382994622,-0.011756310743511137,9.800000474337248
1727705402.5750482,-3.9799273876635535e-07,4.202737087123822e-07,0.7253243765163735,-0.6884072550683926,-2.6248949113001295e-08,7.309864956126394e-08,0.06195936483290786,0.010199668174714948,-0.15448694220072032,9.800007074941366
1727705402.5899343,-3.981462897192774e-07,4.1943645421540657e-07,0.7245206140392011,-0.6892531318985243,3.1614136053949836e-08,6.698143656272049e-08,0.05798508194152578,-0.013124317415744631,-0.0018325554968008856,9.800000054418756
1727705402.620669,-3.9883480636023734e-07,4.1943252653577957e-07,0.7239210588382374,-0.6898828165494414,3.12120594341317e-08,6.697051286942012e-08,0.057961854358883805,-0.013946264363174704,-0.00043723985509950685,9.799999987012232
1727705402.8568096,-3.947539182164857e-07,4.144231732236403e-07,0.7233348189475184,-0.6904974581400233,-6.562363613174306e-07,6.501715435764847e-08,0.055298137689043174,0.0033316561931055547,-1.9201301786705154,9.80000232101909
1727705402.8661785,-3.884277923505137e-07,4.071237897408914e-07,0.7227883939763873,-0.691069415856843,-6.366875120971213e-07,5.9250995880884104e-08,0.05147592798852406,0.006343189509613324,-1.9199953128176845,9.800002280693308
1727705402.9067564,-3.80243966393771e-07,3.9776717092777303e-07,0.7221182818859496,-0.691769605407596,-6.115216047194678e-07,5.225308912438667e-08,0.04669312065848518,0.009670515150335776,-1.9198261752482544,9.800002228111413
1727705402.9377582,-3.7449669339308824e-07,3.9123270799733737e-07,0.721666107292905,-0.6922413087821413,-5.340887516577613e-07,4.62857665939002e-08,0.040701348958482854,0.04879124914446273,-1.7504943821130263,9.8000031788152
1727705402.969403,-3.7412389288505176e-07,3.9056938461811094e-07,0.7215643222343363,-0.6923474047602186,8.55092531798425e-08,3.244939626787585e-09,0.0016710545971796945,0.06087665945551037,-0.05248734327804403,9.800002693997463
1727705403.0099034,-3.755503843795012e-07,3.920872111212505e-07,0.7215621136901421,-0.6923497064971714,1.034567237330384e-07,-1.3918851990941644e-09,9.909823420095464e-06,0.00036121703499090074,3.858260720150212e-05,9.799999974162107
1727705403.2359602,-3.76588505193777e-07,3.931992207376124e-07,0.7215621007944529,-0.6923497199369688,1.003914624107033e-07,-1.377042274600652e-09,2.1181022698469495e-07,7.730695898014473e-06,1.1742059602244903e-05,9.79999997406519
1727705403.2399683,-3.7759577200606476e-07,3.942782368299373e-07,0.7215621005188217,-0.6923497202242286,9.741031766137728e-08,-1.336472750667299e-09,4.527119870671843e-09,1.7554586438524688e-07,1.0748325221979468e-05,9.799999974842017
1727705403.2779796,-3.78892415543829e-07,3.95667242025867e-07,0.7215621005128385,-0.6923497202304629,9.35721394254165e-08,-1.2838867198009945e-09,2.6735087557612852e-11,1.1997060323956002e-08,1.0761146936502756e-05,9.799999975823418
1727705403.358991,-3.798312579772703e-07,3.966729626809473e-07,0.7215621005128041,-0.6923497202304976,9.079285244201539e-08,-1.2459135326793736e-09,4.596103675319965e-13,1.1397056343321413e-08,1.078727793840738e-05,9.799999976540377
1727705403.3882184,-3.807422168959269e-07,3.9764881344688447e-07,0.721562100512804,-0.6923497202304966,8.809655902302298e-08,-1.2087096596813715e-09,-1.0526449796610835e-13,1.1734961040099476e-08,1.0812744426501236e-05,9.79999997723607
1727705403.4239028,-3.8162611487764053e-07,3.9859567865499213e-07,0.7215621005128048,-0.6923497202304949,8.547940227328225e-08,-1.1733276591455616e-09,-1.024275006976628e-13,1.206036685599074e-08,1.0837485370222804e-05,9.799999977899567
1727705403.6246805,-3.827639411983218e-07,3.998145648849687e-07,0.7215621005128059,-0.6923497202304921,8.211146286227075e-08,-1.1269167056315735e-09,-1.082566860303463e-13,1.250934614795486e-08,1.0869294892369098e-05,9.799999978784513
1727705403.6384637,-3.8358778530680446e-07,4.006971026969245e-07,0.7215621005128066,-0.6923497202304906,7.967252154579218e-08,-1.093773942576559e-09,-9.78304257491175e-14,1.28168981815934e-08,1.0892330599143207e-05,9.799999979423877
1727705403.6721795,-3.8438715827754536e-07,4.0155342501879135e-07,0.7215621005128072,-0.6923497202304891,7.730537498752896e-08,-1.0610713711660875e-09,-9.854010586520064e-14,1.3126202425039202e-08,1.0914700891524848e-05,9.799999980031261
1727705403.952663,-3.8541618269759435e-07,4.026557546028822e-07,0.7215621005128083,-0.6923497202304867,7.425957451105326e-08,-1.0191251301760242e-09,-9.328265760751842e-14,1.3520741887620969e-08,1.0943470149854613e-05,9.799999980834627
1727705403.956028,-3.8616125574074647e-07,4.0345390060099903e-07,0.7215621005128089,-0.6923497202304852,7.205449433188578e-08,-9.887430081912511e-10,-8.850253246647201e-14,1.3802514517142685e-08,1.096430939093508e-05,9.79999998139737
1727705403.9877706,-3.868842019635467e-07,4.0422834085326216e-07,0.7215621005128093,-0.6923497202304839,6.991442578282038e-08,-9.591516606307193e-10,-8.962364331877562e-14,1.4086108168930363e-08,1.0984540315415624e-05,9.799999981944062
1727705404.0276637,-3.899742399434419e-07,4.0748043751066366e-07,0.721561950650206,-0.6923498764162174,6.916187706510526e-07,-1.5416930581526512e-09,4.3291007800540286e-05,0.0007731173971914757,1.730999654106061,9.800010343951925
1727705404.0865362,-3.9699795483838756e-07,4.1483266948427887e-07,0.721560636914063,-0.6923512455797576,6.710437950612689e-07,-1.3497208596922788e-09,0.0001671257311720501,0.0008103742288714814,1.7308555633060576,9.799997874446083
1727705404.1159232,-4.0231219568415553e-07,4.203991716373438e-07,0.7216348544334622,-0.6922738886210118,2.8097615437255515e-07,-1.245424365699489e-08,-0.019045058639255565,0.2309288834518203,0.7345723934487822,9.799992988833088
1727705404.3441648,-4.0575117921266073e-07,4.24482384204468e-07,0.7221531212165748,-0.6917332358046808,6.44550616260662e-07,-6.779120448280984e-08,-0.055328647347566366,-0.011689238695226362,1.7273407609145863,9.80000665828553
1727705404.35201,-4.0983318573043836e-07,4.2989799097217886e-07,0.7232103292907063,-0.690627844505907,1.781448749265081e-07,-1.1132844786183369e-07,-0.10178875119020879,0.26696224137718455,0.5205389431871257,9.79999885805031
1727705404.3835075,-4.0973246626782684e-07,4.31203223877578e-07,0.7243148912680829,-0.6894693164216601,1.9559225394970475e-09,-1.301227379894721e-07,-0.10730109762143694,0.023690668302699086,0.00739198535515326,9.799999620210738
1727705404.4721034,-4.0933515830052485e-07,4.3223320619503525e-07,0.7254305833564763,-0.6882953353980601,9.60875663024141e-08,-1.3139573075734811e-07,-0.10911178494722411,0.04307926880190126,0.27096639097772185,9.800001591712821
1727705404.5159101,-4.083769110842625e-07,4.331937135606144e-07,0.7269390369410874,-0.68670199983021,-2.0960403806585666e-09,-1.3326069842112234e-07,-0.10976492238628488,0.02028110086097937,-0.0015317900331621294,9.799999994376723
1727705404.5450325,-4.0057265833124086e-07,4.2635079124613667e-07,0.7280189726894927,-0.6855569818795468,-6.819969702786181e-07,-1.2365288088679597e-07,-0.1025554988821237,-0.017414862713437656,-1.9288869161293731,9.800002390579102
1727705404.7526908,-3.970444240255187e-07,4.2391245837264395e-07,0.7290484690137407,-0.6844620733308628,5.046753418618745e-07,-1.1756260553584433e-07,-0.10238144534093756,0.0701583279028445,1.3176927782240704,9.80002161208623
1727705404.7594457,-3.987564182863275e-07,4.279316010269785e-07,0.7310116152178898,-0.6823650184587348,1.8125025093658124e-07,-1.8931143722875265e-07,-0.16941751587866896,0.256997013416522,0.47333573269287016,9.79999932400043
1727705404.7895787,-3.9624547010487925e-07,4.2763780915444113e-07,0.7330364708091363,-0.6801893357465598,-1.9199676066539742e-07,-2.3992604463556805e-07,-0.21254131656576494,0.26029529088134756,-0.5656778750603579,9.800004179526756
1727705405.0752778,-3.9475289008823586e-07,4.290408937960981e-07,0.7355399678462039,-0.6774813323630884,3.024100895845733e-07,-2.9777354565493164e-07,-0.25831716723286924,0.1591704925373424,0.7721292937361032,9.800007899841333
1727705405.0797324,-3.9586660350935074e-07,4.338663802807964e-07,0.7384053074655053,-0.6743571768035301,4.999566549781948e-07,-3.4106137182775973e-07,-0.28762141750961845,0.03115448155310161,1.3154283864335927,9.800004953944791
1727705405.1016357,-3.9452527658917853e-07,4.378157745333411e-07,0.7425689058686792,-0.6697696768566379,1.6195912955120565e-08,-3.7541640453782594e-07,-0.314970458269067,0.0583782264391594,-0.0027543327066237317,9.799999599720234
1727705405.1390786,-3.9365094046756484e-07,4.411249951269161e-07,0.7457273256117439,-0.6662512707947403,3.4947866340715725e-07,-3.766959851565162e-07,-0.3150485426354241,0.038667031905885496,0.9199336157351328,9.800005555091216
1727705405.1931374,-3.918213483403307e-07,4.4338518490815834e-07,0.7488698843641766,-0.6627170559839505,9.271756808584749e-09,-3.779557472226331e-07,-0.3153168729267121,0.04846403244136388,-0.010426070845868817,9.799999864720565
1727705405.235441,-3.82277744631986e-07,4.3821069067225005e-07,0.7529269248058916,-0.6581041299840055,-6.752907588583819e-07,-3.5624851721092835e-07,-0.2989555927594291,-0.038024433407391284,-1.9538981475762338,9.80000240630363
1727705405.4676955,-3.7685977706173207e-07,4.3578966251815653e-07,0.755591535875377,-0.6550430756165253,-3.2976947038983104e-07,-3.0583266453724384e-07,-0.2662999239685865,0.09918249940169518,-1.0092540986904293,9.79999986638652
1727705405.470748,-3.738489787706334e-07,4.360238407157885e-07,0.7584821925601696,-0.6516937651756289,-1.0154942701639678e-07,-3.4846273772431647e-07,-0.31005422206210226,0.22897356160663956,-0.3798551501106446,9.800000607463005
1727705405.5050778,-3.6960343559043617e-07,4.369500491359913e-07,0.7629899390273165,-0.6464103595571193,-1.0291297694586475e-07,-4.15545339009203e-07,-0.3693886188154843,0.22125207698658556,-0.4051150123236077,9.80000047871887
1727705405.5886762,-3.661043147766135e-07,4.3793012235666273e-07,0.7668438332561768,-0.6418337287776696,-9.913419117191014e-08,-4.6493225477649e-07,-0.4136274451756251,0.21870723381735088,-0.4111422792519442,9.800000492712607
1727705405.6211061,-3.6226601295234197e-07,4.390342561514838e-07,0.7710391438841611,-0.6367877500376838,-4.1079304304636165e-08,-5.062790022231584e-07,-0.4485566630228121,0.1428691569681966,-0.27781722982968426,9.800001787647089
1727705405.6550395,-3.5966997189188243e-07,4.420587494881711e-07,0.7754962072271733,-0.6313522254462592,5.499007534751378e-08,-5.444380845253763e-07,-0.48073612214102546,0.11643157641768048,-0.020925963244447666,9.800000089676885
1727705405.847065,-3.5602089745424355e-07,4.4636924266348133e-07,0.7816524191290961,-0.6237142740624955,4.6483160018775694e-08,-5.669092098367356e-07,-0.5074940606897946,0.3121659617667065,-0.01653418899919583,9.799999873128803
1727705405.8516805,-3.5288444452024705e-07,4.497231522257975e-07,0.7867837820277666,-0.6172287099104813,4.5157573509491965e-08,-6.431143955729848e-07,-0.5732571304181248,0.3131345483175196,-0.03320618372410774,9.800000026132308
1727705405.8808587,-3.494855057393464e-07,4.536605875540168e-07,0.792352798525596,-0.6100631464597155,6.553079194433324e-08,-7.004661803160949e-07,-0.6123542488310704,0.07479036605914294,-0.017347912754907314,9.799999433938765
1727705406.145771,-3.444813859933817e-07,4.5877891569282564e-07,0.7998616700389285,-0.6001843956670376,4.0997705714272685e-08,-7.191396082429688e-07,-0.637204997863473,0.31515668204921826,-0.051385408519344936,9.799999810026286
1727705406.149053,-3.402720796996669e-07,4.6265244045768355e-07,0.8059510720136595,-0.5919821530415451,3.9890029411152725e-08,-7.957097040533804e-07,-0.7029553369688233,0.31605254387590564,-0.07212856856098553,9.800000072335429
1727705406.1797774,-3.3590120631810276e-07,4.67233944692078e-07,0.8123780117517858,-0.5831311739410645,6.162580286331853e-08,-8.457294902982999e-07,-0.7343391910806458,0.057633611591276106,-0.055057061983668394,9.799999740627241
1727705406.2245133,-3.2957209269422495e-07,4.730644773116066e-07,0.8208753390157975,-0.5711074135356389,5.452571207743072e-08,-8.519281234189036e-07,-0.7364620242228822,0.011789260493546604,-0.07573546405172664,9.8000000741861
1727705406.2779095,-3.2473575820976575e-07,4.773572043822974e-07,0.8271344521601147,-0.5620040907764406,5.284807196652867e-08,-8.531257871140731e-07,-0.7365101782056778,0.010744574450941121,-0.07593151578775098,9.800000075887041
1727705406.3077986,-3.197868699493978e-07,4.814967320037803e-07,0.8333532767778493,-0.5527407313409128,3.2272871445002446e-08,-8.651303729535652e-07,-0.7584311835301045,0.31859106658684305,-0.09121113708017431,9.799999744801287
1727705406.532569,-3.1459785304103135e-07,4.859365106962696e-07,0.8398489197877566,-0.5428202206357122,6.028071436292273e-08,-9.235625515192186e-07,-0.7981276170758722,0.08227768010590246,-0.05927822810418018,9.7999996060655
1727705406.5456176,-3.075601296762163e-07,4.910963049010118e-07,0.8474253994071752,-0.5309144869366946,2.828159222165017e-08,-7.796100467460291e-07,-0.6500954101843872,-0.5108236662088883,-0.1779956019926662,9.800000201684611
1727705406.5812733,-3.0319475938740366e-07,4.942949357097867e-07,0.8519814613644153,-0.5235719525442698,2.726431653398409e-08,-6.506559338798715e-07,-0.5390772252076301,-0.5140044924258653,-0.14582269247025248,9.800000164765022
1727705406.6091065,-2.9962936865822753e-07,4.969430554136931e-07,0.8556131926151551,-0.5176157499753697,2.6410073109973957e-08,-5.215957025485016e-07,-0.42807371378252734,-0.516172603103749,-0.11944103035589147,9.80000013454383
1727705406.7180455,-2.98351740409004e-07,5.047527065451738e-07,0.8601882151105809,-0.5099767000408248,1.9395317559148251e-07,-5.347476732420498e-07,-0.4626018912548486,0.19540655629239104,0.4673066944482095,9.799998296908393
1727705406.7430308,-2.960494886233048e-07,5.091517747727691e-07,0.8639172986482958,-0.5036336973395291,1.800045317075019e-07,-5.867175740844585e-07,-0.5043071962890124,0.2100187970019772,0.4351700407614465,9.799999706703812
1727705406.9372535,-2.9329198377264646e-07,5.136027181137345e-07,0.8679133856973853,-0.4967155674296426,1.617851623253447e-07,-6.399051258914063e-07,-0.5468766466968675,0.2289587077493374,0.38990669238524434,9.799999494453928
1727705406.9422503,-2.9195195539416606e-07,5.24104250132609e-07,0.8728958844543827,-0.4879065227092593,2.792559392183115e-07,-5.86199746008152e-07,-0.47248895945893343,-0.29958785960379536,0.6992315431459852,9.79999683287438
1727705406.9739945,-2.899268812525594e-07,5.289201122365824e-07,0.8759644420523481,-0.4823756795896269,1.980239207472728e-07,-4.98084816895421e-07,-0.39681817117970697,-0.3005791558369525,0.509853254693869,9.799999303388471
1727705407.2283657,-2.874866101191929e-07,5.316711404938584e-07,0.8785613570911763,-0.4776295026751858,-1.1464824031716196e-10,-4.3255361194371616e-07,-0.3517843912345488,-0.04542108643552783,0.017503567425554704,9.799998956796683
1727705407.2303278,-2.864289556578903e-07,5.362117500249791e-07,0.8808360199135898,-0.4734214887628321,4.669653201790083e-08,-3.8054862628279497e-07,-0.30605076962068767,-0.0783870531636928,0.16776060995303751,9.799995679710241
1727705407.2563128,-2.8292224089507107e-07,5.37590842578703e-07,0.8836882841076766,-0.46807586621237063,-2.4781575552253157e-08,-3.702134309253786e-07,-0.30264158576177497,0.04519562189221114,-0.012673029366477146,9.800000015841967
1727705407.2860043,-2.802846228236557e-07,5.385758486338732e-07,0.8858039353185613,-0.4640596816938327,-2.4124980398782085e-08,-3.698674825987026e-07,-0.3026216148655625,0.045912368630424714,-0.012647647834082574,9.80000001896507
1727705407.3166535,-2.775979220407821e-07,5.394131425042963e-07,0.8878638954605493,-0.46010618680610066,-2.709378328823085e-08,-3.5959394383214313e-07,-0.2934950324193672,0.016795209138032265,-0.026140415768135594,9.80000049546467
1727705407.3655822,-2.743737031156758e-07,5.408599216373685e-07,0.89041862526383,-0.4551424741582612,-1.4023101562427027e-08,-3.2390281398117006e-07,-0.26191032826789573,-0.0568584229309208,0.002952225465757452,9.799999329568669
1727705407.5882998,-2.7209171947022636e-07,5.416482142513747e-07,0.8921839857422278,-0.4516721549805177,-2.2903619681129665e-08,-3.159030074931661e-07,-0.25929067079414336,0.037236965534860784,-0.009504532727688551,9.800000012247622
1727705407.5910559,-2.652320028536768e-07,5.331663428599666e-07,0.8938610333593661,-0.4483441234602853,-7.040902057393619e-07,-2.9450261781025527e-07,-0.24305542265231073,-0.044218100954680956,-1.9463969217664063,9.800002459077772
1727705407.6204903,-2.5939475170841465e-07,5.278955006140784e-07,0.8960935326318401,-0.44386527322493174,-1.4304109996598256e-07,-3.06211231005904e-07,-0.26887850405637326,0.22641927690637287,-0.41004459615855554,9.800001443000765
1727705407.6526504,-2.5632226207362125e-07,5.272796598940276e-07,0.8980783321960423,-0.4398355479490391,-1.2445797034291198e-07,-3.59066708458481e-07,-0.3146814500837023,0.22715878183939334,-0.37527661881842794,9.800000497297406
1727705407.7178555,-2.529009165193305e-07,5.268243517324813e-07,0.9003384656819411,-0.4351903574450457,-1.2794314878086017e-07,-4.1031606415943103e-07,-0.35914319015532054,0.2194534133205752,-0.4029535842473445,9.800000479488123
1727705407.7462997,-2.489157237504042e-07,5.260489629750735e-07,0.9028480563936068,-0.42995975051851987,-2.3431414500430252e-07,-4.576150001374251e-07,-0.3978210096563416,0.1402088391932345,-0.7259012219141742,9.799998685319103
1727705407.95426,-2.4428028312038385e-07,5.274157884953063e-07,0.9064074424506399,-0.4224044841970213,2.67808076929085e-08,-4.888523136905157e-07,-0.421411263736571,0.018252179401431624,-0.03417782838062219,9.800000280959546
1727705407.959069,-2.409502560886279e-07,5.293638819495268e-07,0.9093332627509,-0.4160685247101301,2.3974469835178583e-08,-5.522709619467641e-07,-0.48718312649480977,0.31159062837302537,-0.011873493360019296,9.800000006407371
1727705407.9706004,-2.3716231245195964e-07,5.317242810514982e-07,0.9125833546962447,-0.4088907197907642,3.7933089304059726e-08,-6.20792490488732e-07,-0.5373607847015269,0.11692116272519021,-0.01035912898097301,9.79999967228809
1727705408.2485957,-2.316623383075344e-07,5.348752959746403e-07,0.9169594696798389,-0.3989803641335358,3.1664799388554313e-08,-6.325421042211971e-07,-0.5423646081394128,0.008437358439661504,-0.040771483997615716,9.800000039260757
1727705408.2505784,-2.2726872192251646e-07,5.37113577393531e-07,0.920432255469156,-0.39090211446297185,2.066930300127497e-08,-6.956402286001576e-07,-0.6081275608671983,0.3140404656101461,-0.04294786242378187,9.800000043508417
1727705408.2802022,-2.2243652076873743e-07,5.398304588950492e-07,0.9241859359968205,-0.38194286968778457,6.69457054746083e-08,-7.664611924883524e-07,-0.6617068101380265,0.1570042407980023,0.048704201000420305,9.800000480178118
1727705408.3234172,-2.154853152563561e-07,5.434488482848737e-07,0.9292024607672106,-0.3695710850483553,3.3703820528922316e-08,-7.824692274847135e-07,-0.6684338555622245,0.012333164098458856,-0.06175507236077834,9.800000057779341
1727705408.3533258,-2.1002403551591363e-07,5.461108351231285e-07,0.933076075870289,-0.3596790745069282,5.574918595863744e-08,-8.396527725764563e-07,-0.7223439914607463,0.1542997205998831,0.00431643594100249,9.800000626026678
1727705408.410749,-2.0421976982203591e-07,5.488082446409614e-07,0.9369835265168729,-0.34937354083510863,1.589046662917728e-08,-8.653705280398394e-07,-0.7499088652813847,0.3183245269835344,-0.0882504006955091,9.79999973003347
1727705408.4424617,-1.9808384636842832e-07,5.517282111923559e-07,0.9410142971358588,-0.33836680183723966,4.374224930133062e-08,-9.230904712814678e-07,-0.7886165695241807,0.07809414706280242,-0.05792898552470377,9.799999614494858
1727705408.6659575,-1.8927677422847402e-07,5.552413317326353e-07,0.9464582975048392,-0.3228261003758793,1.3858640798398654e-08,-9.921642932080662e-07,-0.8562100767626019,0.32065919753645533,-0.1285272806963316,9.800000145899645
1727705408.6786847,-1.8224385303647093e-07,5.58570118073707e-07,0.9506788088072209,-0.3101770502221883,5.6930224543566916e-08,-1.0528829142671059e-06,-0.8973743584883989,0.09241052121260394,-0.05653110551929244,9.799999049664518
1727705408.7095668,-1.7484746808913114e-07,5.615838958223209e-07,0.9547804352433947,-0.2973118236399083,3.977746593591719e-08,-1.0615214605961154e-06,-0.9007283253712567,0.02057838441860008,-0.11230725063831408,9.800000109474553
1727705408.757142,-1.648738498842564e-07,5.653976227437079e-07,0.9599821821649894,-0.2800610824898703,3.7933853402318465e-08,-1.0633008586427673e-06,-0.9009380030649122,0.016041040586225422,-0.11362411553374514,9.800000125841722
1727705408.7861514,-1.5733538232983983e-07,5.681220661095436e-07,0.9636791887438688,-0.2670625791488039,3.674353578427634e-08,-1.0642621059159245e-06,-0.9009427602384503,0.015937965981513643,-0.11364065677264887,9.80000012626112
1727705408.821975,-1.495679527636167e-07,5.707301450170131e-07,0.967357180915126,-0.25341681974879254,8.376006880788146e-08,-1.1239966159593775e-06,-0.9589472280476483,0.2139683977318826,0.02202541232464594,9.800001464038802
1727705409.0318093,-1.3841090491650763e-07,5.738892536615587e-07,0.9722193996973327,-0.23407143963288063,6.354635540195771e-09,-1.2046994018673979e-06,-1.030225173780373,0.32641848129611745,-0.20608328479164115,9.800000240133931
1727705409.061672,-1.2959179047925097e-07,5.771308205076443e-07,0.9758280699938127,-0.2185396481460536,6.665365720945268e-08,-1.266928732854763e-06,-1.0721793904426,0.10540376369768781,-0.08896530047463418,9.7999987604116
1727705409.102241,-1.2037420556965853e-07,5.798262889517586e-07,0.9792258583820463,-0.20277257772093787,4.417817330034275e-08,-1.2766912711650778e-06,-1.075830678381168,0.027707898701259795,-0.16050957716653316,9.800000162340226
1727705409.3537447,-1.1108716776982893e-07,5.81905068073552e-07,0.9822669039467334,-0.1874879447072476,1.2034341706555398e-09,-1.2138825815100313e-06,-1.0019428046302594,-0.4988981254144611,-0.3189932169682052,9.800000380583711
1727705409.3694074,-9.997847229910119e-08,5.839431763564943e-07,0.9855142276969309,-0.16959276814348734,7.268607748122436e-10,-1.037222027640284e-06,-0.8538442010965948,-0.5080092613250216,-0.25275097823554005,9.80000030215702
1727705409.4027166,-9.277525353762632e-08,5.851565277361655e-07,0.9874304623029682,-0.1580540480841776,5.404178779952117e-10,-9.048521650853829e-07,-0.7427599865696433,-0.512821440795032,-0.20979713569286074,9.800000251300485
1727705409.4297009,-8.654532750289885e-08,5.86139902696692e-07,0.9889661428137968,-0.14814171717530772,4.878714731675658e-10,-7.72583400059291e-07,-0.6316842787883771,-0.516205052267078,-0.1726318486451668,9.800000207317883
1727705409.483165,-8.022037684057538e-08,5.904090697912558e-07,0.9905265653204134,-0.13732124159863118,6.597012471446067e-07,-6.141500660944153e-07,-0.5135573823849101,-0.10698634096514104,1.74831210642051,9.800010963391097
1727705409.5228047,-7.693468128886171e-08,6.00274726795207e-07,0.9915296888067735,-0.12988023796704778,5.654546270592025e-07,-6.019405102415898e-07,-0.49557080222004607,-0.035830985197706486,1.5524756678247187,9.799996522499145
1727705409.750641,-7.335105947591031e-08,6.083637653734616e-07,0.9924696588981573,-0.12249071869410982,6.254839457421437e-07,-6.044960311044445e-07,-0.4893216938526962,-0.06212576990249673,1.7542020849481794,9.799997724278585
1727705409.767235,-6.874286778759203e-08,6.205306935132514e-07,0.9935883962066389,-0.11305794498012411,5.67426576982875e-07,-5.88422156427966e-07,-0.4664146125688464,-0.008650946810875618,1.6675128687053575,9.799997803267667
1727705409.7970026,-6.488342895587486e-08,6.260503123492489e-07,0.9943581463130993,-0.10607486441367764,1.8394668789332314e-07,-5.989837508408478e-07,-0.4769973819838378,0.23016088319285152,0.6719936752899429,9.799997569536368
1727705409.8286233,-6.036411525675463e-08,6.273067751252163e-07,0.995101574012143,-0.09885776346933134,1.1906728901218464e-07,-6.168829130574505e-07,-0.48772742125819696,0.17846607515279345,0.48754622497365135,9.80000234823704
1727705409.8610332,-5.564155617341461e-08,6.273593819964937e-07,0.9957975261756586,-0.09158213178367297,-4.4573678587463124e-08,-6.195736918072296e-07,-0.4859741213848817,0.0897830175081981,0.023376428926433646,9.799999782248703
1727705409.907126,-4.9615211075117247e-08,6.295035523901727e-07,0.9966276930040203,-0.08205633148688324,-5.013780060068264e-08,-6.08223774800134e-07,-0.47561543753420843,0.09423394658361325,0.019654158857132946,9.799999810996496
1727705410.1412363,-4.545162805095057e-08,6.350532057680556e-07,0.9971798455493391,-0.07504902151121556,5.41956335496108e-07,-5.980294306483684e-07,-0.46321462983617423,0.040162705257356095,1.6686751453138744,9.799997765811954
1727705410.1677344,-4.153316489084209e-08,6.433380162092495e-07,0.9976663714716825,-0.06827745773028399,5.257123168296975e-07,-5.861019144488999e-07,-0.4473356325882235,0.06101904955296616,1.672282625031861,9.799997737351068
1727705410.2203226,-3.585148781750325e-08,6.469732017268474e-07,0.9982317788706598,-0.05944169960808704,-7.47025974395331e-08,-5.825641952876458e-07,-0.4423466626213838,0.14655495655083592,0.05312830008225852,9.799998913130187
1727705410.461786,-3.1711175219421593e-08,6.519310243292676e-07,0.998599114987633,-0.05291320766585811,5.092566722963711e-07,-5.726963090343882e-07,-0.4308006530166412,0.08587582534171885,1.6759188187717322,9.799997709232494
1727705410.4756234,-2.763984706285792e-08,6.563062513736204e-07,0.9989085370935158,-0.046709041108344174,8.960174473693109e-10,-5.454037317106492e-07,-0.4046732487987556,0.06999362481269994,0.30482901968046344,9.79999321613904
1727705410.527075,-2.2127387437881886e-08,6.545087631398362e-07,0.9992493806812823,-0.03873854937454774,-1.047583548020486e-07,-5.28951828497098e-07,-0.39655724485035126,0.1481736526756871,0.017098262531793626,9.80000001316193
1727705410.559065,-1.8086870028017468e-08,6.536782358957326e-07,0.9994619950931857,-0.03279817622857556,3.0432037048488486e-08,-5.264209012281358e-07,-0.3975109031734423,0.19533361287760279,0.38988172966459744,9.80000238651303
1727705410.6323862,-1.403624534345023e-08,6.524699470594845e-07,0.9996394172754526,-0.026852102874216688,-1.0579659480571452e-07,-5.252301066190603e-07,-0.39577583528526517,0.16170311660015782,0.00400954041543529,9.799999722858974
1727705410.6650088,-1.0085574438515619e-08,6.540192827518128e-07,0.9997805821281076,-0.020947257556879262,-8.762628152995541e-08,-5.227622721126284e-07,-0.3929356360248588,0.16703983100060082,0.06281056952831192,9.799998135336532
1727705410.8910093,-4.896539612026928e-09,6.515840664024678e-07,0.9999068133378225,-0.013651543508919395,-1.5438709099975878e-07,-4.477144589813815e-07,-0.32129117355593206,-0.3250630269293271,-0.1902787308558455,9.800000283935507
1727705410.8950884,-2.0231375465516736e-09,6.508176620163876e-07,0.9999520291275381,-0.009794868212246677,6.410928281422098e-08,-3.1804696133572676e-07,-0.2298487330393934,-0.23883006825484554,0.43435245104820397,9.800002181882984
1727705410.9255128,1.4998905928020746e-10,6.526116412764949e-07,0.9999783703034298,-0.006577151729328656,-9.735083713279073e-08,-2.767079230122894e-07,-0.20983066688152868,0.06406124875191949,0.047008982698115646,9.799997427163596
1727705410.9699361,2.8965584255734013e-09,6.510748105603101e-07,0.9999970729489809,-0.0024195233097705215,-9.706489902013001e-08,-2.701856176109853e-07,-0.2064745590587982,0.0905055948619704,0.04348731496761989,9.799997760687406
1727705410.9986227,4.923459625501877e-09,6.494080416913082e-07,0.9999997722433476,0.000674916906855394,-1.1199395995750486e-07,-2.6886758648455634e-07,-0.20627494700500187,0.09762924807213756,-0.005603984995808067,9.80000002207742
1727705411.034259,6.86414087420225e-09,6.493277498671056e-07,0.9999935965700102,0.0035786615590178705,-1.0652474391057738e-07,-2.5046658230344265e-07,-0.19207456524712196,0.08170912971194694,0.008515428391823553,9.799999351229953
1727705411.269473,9.2526545872589e-09,6.48184059361035e-07,0.9999755312920442,0.0069954854566022795,6.38771915886507e-08,-1.936837801074807e-07,-0.13815392191439552,-0.25043452886478335,0.4291313843292266,9.800002158981401
1727705411.298539,1.035703338670403e-08,6.49199670221555e-07,0.9999643468051613,0.008444235791687738,2.9109972109945437e-08,-1.0939400123298979e-07,-0.07876139206882085,-0.17738748285604114,0.3554136165075446,9.799998389624871
1727705411.331074,1.0992433992703985e-08,6.476648870753783e-07,0.9999549265450527,0.009494465643675676,-1.0843103621705801e-07,-8.537193512335311e-08,-0.06897564280224469,0.027030929014154458,-0.0006809879921623983,9.799999977088133
1727705411.5645704,1.1580394258723727e-08,6.460110893559801e-07,0.9999461482645731,0.010377888534130797,-1.1610358290018772e-07,-6.567971177089193e-08,-0.03909674902466363,-0.38115855588764325,-0.08666845032224668,9.799999885465084
1727705411.567881,1.1796967986409885e-08,6.439767604274356e-07,0.9999414222686847,0.01082367917412913,-1.0100568366487025e-07,-1.7677577780351207e-08,-0.018152800385667363,-0.0006004475581843087,-0.0012890012061951013,9.800000016856217
1727705411.5968995,1.1862946816872428e-08,6.424916353504262e-07,0.9999384782419916,0.011092327559059811,-9.80471594646801e-08,-1.6958790783286504e-08,-0.01788212588487935,0.008735749927893265,-6.767019958002328e-05,9.8000000193384
1727705411.6270661,1.1931141355255026e-08,6.410738886752139e-07,0.9999360933449233,0.011305274241769414,-9.04157161687414e-08,-1.0146518949823985e-08,-0.0068375712378101906,-0.1456181330224739,-0.008224005558775907,9.800000107500278
1727705411.7117422,1.1836407323912673e-08,6.392242481653819e-07,0.9999354162260872,0.011365006658725307,-9.131407337904181e-08,2.8832944652805724e-09,-0.002604044984552076,0.000406762919432164,-0.00011824312227178582,9.800000018240171
1727705411.7415323,1.1847907976080397e-08,6.378186205359949e-07,0.9999300663051491,0.01182634764301016,-6.681235542294897e-08,-5.195723651413922e-08,-0.057810705106006,0.3790841001293078,0.10962710976504401,9.80000098735707
1727705411.978958,1.238530480816105e-08,6.365651781743343e-07,0.9999177921956784,0.012822201453515036,-7.875145918689564e-08,-8.220535075233617e-08,-0.06711308398987986,0.03459389324689353,0.02039201234796059,9.80000012681096
1727705411.982777,1.3154149893210164e-08,6.348783743371368e-07,0.9998996467564287,0.014166736249585588,-8.297078377972189e-08,-8.232536082446414e-08,-0.06724477316915789,0.0337350752853492,-0.0006058354501949802,9.800000016562366
1727705412.0099874,1.3730534870364982e-08,6.336540000239888e-07,0.9998848483566005,0.015175309766061074,-8.05180401186768e-08,-8.22552619878356e-08,-0.06724555257909753,0.033708196701338955,-0.0006135059029233784,9.800000016283677
1727705412.039938,1.430639219731581e-08,6.324650697764415e-07,0.9998690326105918,0.01618386931359661,-7.81366845137811e-08,-8.21849783871469e-08,-0.06724556940002133,0.03370761565865986,-0.0006136263728979232,9.800000015813088
1727705412.0804272,1.4835237994377478e-08,6.308958218946683e-07,0.9998538186922905,0.017097989532262436,-7.643627085398366e-08,-7.313964725828972e-08,-0.06019800319200726,0.024578505447602404,-0.0053067574882572095,9.800000199023101
1727705412.1116085,1.5514863109951093e-08,6.294138558933333e-07,0.9998319399167772,0.018332809982577247,-7.227514471686542e-08,-7.697371319817166e-08,-0.06384408510621525,0.04298926625814267,0.0002979125710900221,9.800000044556972
1727705412.3606863,1.6063601583438927e-08,6.287350214053331e-07,0.999813063695011,0.01933488206326328,7.443931555913515e-09,-8.283958907004254e-08,-0.072238301259512,0.14544882025300696,0.2292437881567888,9.800001260733628
1727705412.3938026,1.6706473430972864e-08,6.277494082003206e-07,0.9997906875429052,0.020459254680713246,-6.850469460522666e-08,-9.226024228617584e-08,-0.07529930758285264,0.04012580190757878,0.00018111697939966021,9.799999985742009
1727705412.4556563,1.755418711475252e-08,6.263957194102304e-07,0.9997601048062443,0.021902804327634418,-6.603349040157927e-08,-8.642029749386728e-08,-0.07064061391215926,0.0317861546571838,-0.0012161207668061873,9.800000015521004
1727705412.715863,1.8159960558084716e-08,6.254155382333741e-07,0.9997354644954339,0.02300002238493193,-6.401454420994495e-08,-9.071645657190814e-08,-0.07838841397100621,0.14521759801683626,0.014435463944699793,9.800000005756619
1727705412.7176106,1.8939989064781076e-08,6.242519306289679e-07,0.9996990255570565,0.02453280048998402,-6.886705710305283e-08,-1.403079287492345e-07,-0.11782429793367472,0.18841297473770804,-0.0028572706769106663,9.800000548604807
1727705412.7492478,2.040629782687094e-08,6.230118533342137e-07,0.9996366397489218,0.02695530506403948,-5.93643175173647e-08,-1.514066611418896e-07,-0.12149751561369415,0.06167065006518147,-0.0018852799536764003,9.800000013553559
1727705412.785661,2.152025487589392e-08,6.222687604976358e-07,0.9995854256856442,0.028791956454219614,-2.6700062883733278e-08,-1.5302084282858755e-07,-0.12444157610384649,0.10181478573668211,0.08926135679706519,9.800000513433385
1727705412.8569791,2.2663927934695375e-08,6.214141102219132e-07,0.9995294864578972,0.03067255615082992,-5.619595018241547e-08,-1.5624538948982448e-07,-0.1255465842147891,0.0639111211776626,-0.0017607980668650552,9.800000001908112
1727705412.890174,2.3881936576343142e-08,6.205588313318723e-07,0.9994612409020791,0.03282115071246444,-5.440683401199856e-08,-1.8993308384371972e-07,-0.1554388330964359,0.16600827754603928,0.0097115931472059,9.79999996862744
1727705413.1336443,2.5825376009630628e-08,6.194713639107332e-07,0.9993552889204343,0.03590273675320799,-4.5790065207727405e-08,-1.8899615305061266e-07,-0.1437818405487839,-0.11829669529316604,-0.01150376714449812,9.800000136390096
1727705413.1475549,2.7116180213359295e-08,6.186622734829593e-07,0.9992782470534729,0.03798664193311824,-5.105192909184491e-08,-1.7229823396904603e-07,-0.13845427677639544,0.06549591595739217,-0.0031368349984173395,9.800000012347814
1727705413.1622968,2.8378645813894055e-08,6.178692523633679e-07,0.9991965123022897,0.04007904443169147,-4.950270985912975e-08,-1.7389909713423132e-07,-0.14208437035462726,0.12191901752915552,0.004684900652698675,9.800000009766043
1727705413.2030432,3.011974972099762e-08,6.168392622460167e-07,0.9990774662124565,0.042944341956962284,-4.76535150552091e-08,-1.7802355044135236e-07,-0.14351815990924027,0.07247152465020999,-0.0027297256711179,9.80000001200624
1727705413.2350395,3.143681781571699e-08,6.160876580771611e-07,0.9989816569385446,0.045118168180228624,-4.626483635381237e-08,-1.799544203452743e-07,-0.14524664491963368,0.07437650881647451,-0.0026445621903096552,9.80000001127645
1727705413.2691064,3.2750313969492096e-08,6.153529360934015e-07,0.9988825679532046,0.047261140896420695,-4.495727599151112e-08,-1.7557514011893178e-07,-0.14147557018882936,0.05996614274888748,-0.004342070514225625,9.800000017170719
1727705413.5474005,3.4283029005401095e-08,6.109343117962789e-07,0.9987458497190874,0.05006723148451231,-7.375853336530295e-07,-1.7194191635579958e-07,-0.138294388103138,0.03192163465863447,-1.932968667520327,9.799988673294722
1727705413.5798995,3.495781903118232e-08,6.00049505549608e-07,0.9986442122827812,0.05205513686219193,-7.156122557208899e-07,-1.5784300972795684e-07,-0.1299458591513984,0.021620610011643768,-1.9320222591055733,9.800002465797519
1727705413.6203215,3.587936139559751e-08,5.960696956048755e-07,0.9985452030483544,0.05392102993048198,6.232797994824645e-07,-1.460929103642375e-07,-0.12186252476493176,0.009246509666915545,1.7210274152394498,9.800024070994887
1727705413.9016004,3.7447864469805436e-08,6.051678531135756e-07,0.998449337084186,0.05566795555596976,6.047941819791665e-07,-1.390212006467072e-07,-0.1140926310310052,0.015242944608603719,1.7217341682558345,9.799997790962108
1727705413.9031343,3.859362652020216e-08,6.082706563813515e-07,0.9983817856259816,0.05686659942272909,1.5997565749837005e-07,-4.5636317994689515e-08,-0.029039146948835692,-0.2621872770649951,0.48555161908730105,9.79999933819556
1727705413.930013,3.8857710125830844e-08,6.106704435973322e-07,0.9983683938302577,0.057101227661206566,2.3667368384046625e-08,-1.4164238050040318e-08,-0.015032776117147945,0.002938155018372452,0.1630388587233382,9.79999262600165
1727705413.955616,3.8900928861630384e-08,6.101862345294042e-07,0.9983555880627861,0.05732468738191715,-3.485748469665539e-08,-1.3846503858435445e-08,-0.014908613190758181,0.0072236266612077365,0.00042073123977893605,9.799999986178655
1727705414.0371554,3.9050814312304234e-08,6.104656826770118e-07,0.9983331836377888,0.05771355514316523,-3.2220785540397023e-08,-2.2382382236313236e-08,-0.021727121046558717,0.016073889068650715,0.010089890254620142,9.799999581582325
1727705414.0645976,3.9129820106710894e-08,6.10603381517618e-07,0.9983311573076141,0.0577485960735491,1.0520827418466463e-08,1.3410765055993473e-08,0.012308575130066099,-0.13835754422949664,0.10815262254552477,9.799999056616812
1727705414.2964466,3.889254903569072e-08,6.101273830293107e-07,0.9983446543451175,0.05751479062079573,-3.454851006898448e-08,2.4668363961118537e-08,0.016007006089579397,-0.01085192868053504,-8.63195288853485e-05,9.799999992529079
1727705414.3006022,3.817963289481056e-08,6.094834816727074e-07,0.9984103935342543,0.0563620979240696,-3.225930572015927e-08,8.441941503107997e-08,0.06398754208533586,-0.046548610419012384,-0.0011254720851046982,9.799999945361897
1727705414.3308055,3.7444130956363615e-08,6.090355127977548e-07,0.9984668966040755,0.05535211274607016,-3.177195828338989e-08,8.96250148974533e-08,0.0678491030834733,-0.03681037189597493,-0.001043623414253732,9.800000010210244
1727705414.6505213,3.669577503011332e-08,6.086053908649273e-07,0.9985227740533599,0.05433479268765795,-3.080702533148805e-08,8.960893051850687e-08,0.06793244260549985,-0.03393548850863042,-0.0005823402649578777,9.800000007049691
1727705414.6529968,3.5696528396637194e-08,6.081592673720036e-07,0.9986194925165097,0.05252722309143376,3.201006958906675e-08,1.6995144658963765e-07,0.14295738750870712,-0.33705422544430425,0.1267651915252657,9.800001765315029
1727705414.6731522,3.368564831813591e-08,6.077406283856242e-07,0.9987711903228707,0.04955915032227287,-2.7499137973471442e-08,1.897140654314785e-07,0.14773028400961608,-0.06680249106231655,-0.0017667162285651703,9.800000002605717
1727705414.7096674,3.218018339010361e-08,6.074004373734972e-07,0.9988784412521876,0.047348279812788996,-2.6742823920358588e-08,1.887378921746798e-07,0.14754497748358403,-0.07319558391372166,-0.00279221679178594,9.800000009135218
1727705414.7352154,3.071616770367502e-08,6.070673765623961e-07,0.9989768110810571,0.04522533495677278,-2.605384700375727e-08,1.8034481927097836e-07,0.14098224355758865,-0.06502948320567084,-0.001800957621898121,9.800000005383728
1727705414.7989614,2.8800953680339043e-08,6.06493550787233e-07,0.999093448237209,0.042570901906285374,-5.3086564066395284e-08,1.6140462001139633e-07,0.10883192339363226,0.3778393209360872,-0.017605708267239388,9.799999517010288
1727705415.0660243,2.7778945851196524e-08,6.063017378811524e-07,0.9991530626732154,0.04114799327263979,-2.44870964403316e-08,1.1998309941445842e-07,0.09327900597276903,-0.03440267048340249,0.0020753947653224976,9.799999937301486
1727705415.0717022,2.6419670433815033e-08,5.956709047736194e-07,0.9992072983059415,0.03980923274550663,-7.04425305463157e-07,1.1232254425241021e-07,0.08737694301222848,-0.01716261088607781,-1.9207339135189776,9.800002430760953
1727705415.103197,2.476772464659465e-08,5.819812592357373e-07,0.9992717651976646,0.038156772379271064,-6.766289342911713e-07,1.001077406651183e-07,0.07993111722295393,-0.008944560202494055,-1.9204497875662059,9.800002372097207
1727705415.133525,2.363912909595055e-08,5.720663556117646e-07,0.9993148344381722,0.03701164237750787,-6.564980397371611e-07,9.171993675892755e-08,0.07465762670426795,-0.003622015385514796,-1.9202589809795285,9.800002329682364
1727705415.2065668,2.2597196896045288e-08,5.624439249657755e-07,0.9993538448553116,0.03594290990708199,-6.369620767527242e-07,8.39514310914252e-08,0.0696441529887637,0.0010355748232828955,-1.9200847219482429,9.800002288499781
1727705415.236126,2.1874714237295192e-08,5.596889928736947e-07,0.9993891962058432,0.034946165837257515,6.995394921772386e-07,7.541581291743014e-08,0.06500124518113413,0.008721652190058299,1.7322178170287377,9.800024160130203
1727705415.4999485,2.158819107444014e-08,5.733483629095755e-07,0.9994314840297633,0.03371511129650229,6.719278562704776e-07,7.106483469162571e-08,0.05961588463491861,0.003461631726255062,1.731899319213174,9.799997878462314
1727705415.5027483,2.137831723040861e-08,5.832368999952634e-07,0.9994600180636791,0.032858367150689294,6.519012791575341e-07,6.797786010268016e-08,0.055947326238839926,6.0392498735182256e-05,1.7316498266288889,9.799997848555279
1727705415.520663,2.1054185355612735e-08,5.89123056342737e-07,0.9994856588485546,0.03206895314354691,7.262567694646169e-08,6.364448219613483e-08,0.0511936506725777,-0.008396633390543208,0.1738953800726386,9.79999221615833
1727705415.8597057,2.0405109902698207e-08,5.893798814129711e-07,0.9995177976564584,0.03105112184181863,9.217185557080096e-09,6.275325819781786e-08,0.05088937140562898,-0.019295552523592954,-0.00024294279187806844,9.799999995501574
1727705415.8649096,2.0123112013805483e-08,5.936607241668252e-07,0.9995331689923923,0.0305523171571761,3.7302861891633605e-08,3.3931163903649057e-08,0.024257334323210956,0.05627294951606971,0.11045814093329943,9.799995456624584
1727705415.8675585,1.9898828918849003e-08,5.935348797372396e-07,0.999541795388197,0.030268783784408504,-3.4612620141259688e-09,2.170878576582229e-08,0.016181106762479084,0.013357391984642074,-0.008388875084909125,9.800000498490602
1727705415.9274874,1.968271056693674e-08,5.935494214320599e-07,0.9995512331520491,0.029955505401593696,5.851925135469537e-10,1.9955341182458502e-08,0.01562036843971825,-0.006185846214290323,-2.6874165651478815e-06,9.800000000042306
1727705415.960052,1.9536702337590092e-08,5.937877833769004e-07,0.9995577116358618,0.02973854584417812,9.049597153651421e-10,1.8392466609428737e-08,0.014332937156510368,-0.00479820417913011,0.002317412294261867,9.799999901167293
1727705415.9982662,1.9389943702798346e-08,5.937939654219573e-07,0.9995640711193029,0.02952401949349731,1.0683641717219725e-10,1.8270517334296148e-08,0.014305070838881582,-0.0057711664413634504,-1.8165464844053078e-06,9.799999999709968
1727705416.031434,1.929898937733926e-08,5.945479412209453e-07,0.9995678303558748,0.02939647117079308,1.2113557734186004e-09,1.056276992634231e-08,0.007814436222278278,0.0018596781465622142,0.007994117693260418,9.799999671089665
1727705416.2786703,1.9348412163967772e-08,5.95656098030342e-07,0.9995620556151071,0.029592177583717738,1.0844953657991549e-08,-2.1648298345532e-08,-0.01930950898270621,0.03493425505848549,0.043823143782972175,9.799998188084443
1727705416.3023355,1.9511368634146337e-08,5.952156232737577e-07,0.9995532503295006,0.029888120639742555,-8.208415986536563e-08,-2.342423422009193e-08,-0.019340656540179826,-0.0012239757438576764,-0.21867402214718185,9.799998708132282
1727705416.3410392,1.967936737062568e-08,5.951055443146154e-07,0.9995446411865676,0.03017466279614861,-2.8987249961730092e-09,-2.27153075041504e-08,-0.01908398037449515,0.007695622121629654,-0.0006813217669722081,9.800000028071592
1727705416.4172113,1.968595020846292e-08,5.881494890365932e-07,0.9995332115712565,0.030550924138286306,-6.891949163859172e-07,-2.120922736860128e-08,-0.01839438345409418,0.0014584174216331666,-1.923243244514537,9.800002400820631
1727705416.4530873,1.9521630296702607e-08,5.780183218559117e-07,0.9995250502402965,0.030816780198423654,-6.686601104368722e-07,-1.9589293679600112e-08,-0.01740598593322145,0.00023333201075552507,-1.9230289952844437,9.800002358026124
1727705416.4806182,1.935177883758717e-08,5.681893020590573e-07,0.9995172649076851,0.031068265982150733,-6.487363494139089e-07,-1.8082917053786388e-08,-0.016462582946692228,-0.0008663820251129184,-1.9228161953043799,9.800002316005926
1727705416.7117624,1.9751331560066455e-08,5.750942783888001e-07,0.9995075581298225,0.03137899362675539,6.682060479336904e-07,-1.777980233034117e-08,-0.014940791316793666,-0.00018920648688071408,1.729432654345452,9.799997876155683
1727705416.733301,2.01935359924507e-08,5.84909007587129e-07,0.999500858916553,0.031591660683325584,6.483065773089839e-07,-1.6758262680679165e-08,-0.01381673629307054,0.0006695958485435574,1.729340629219553,9.799997846272884
1727705416.7787337,2.0560213298309174e-08,5.926769841828051e-07,0.9994930268722046,0.03183848667080269,2.7788260918077937e-07,-2.0702042255292755e-08,-0.02281368185399607,0.1412042736870972,0.7750753029859078,9.799992044166583
1727705417.0555136,2.0646125984337665e-08,5.893269846585491e-07,0.9994874072337647,0.03201441520282139,-2.475184650668556e-07,-6.571417247039836e-09,0.005100048969804438,-0.2734877596887164,-0.7418139529474703,9.800005099208006
1727705417.084088,2.0414730303290484e-08,5.887582595644179e-07,0.9995006661436441,0.031597759067129194,9.852938443347559e-09,2.755173399826102e-08,0.022407795980145147,-0.011825008092505123,-0.001626074463933453,9.800000046577916
1727705417.1139703,2.0201340929793015e-08,5.889146824682939e-07,0.9995112730263177,0.031260439743588275,9.936520646895017e-09,2.782456362600514e-08,0.022509945084745978,-0.008246186908464384,-6.484259348550552e-05,9.799999998252261
1727705417.1454322,1.9983977104089998e-08,5.886408073253561e-07,0.9995204836079998,0.0309645417806082,-2.2275039705638308e-10,2.2835277528135086e-08,0.017840681921882425,0.007383647897022584,-0.027462990304024822,9.800001318134255
1727705417.2086582,1.9789336810119007e-08,5.896814112157533e-07,0.9995318758719937,0.030594592912232765,1.7782863034505e-07,2.3571442678641826e-08,0.021528216125107094,-0.0628065180969333,0.4571683202324184,9.800002761405175
1727705417.2401211,1.9581812739834286e-08,5.899455300117275e-07,0.9995423238658551,0.030251327251835436,8.368716228385908e-09,2.8367452914312344e-08,0.023057568960020744,-0.009620342934460244,0.0010726385487614355,9.799999940525277
1727705417.4980867,1.928112968402248e-08,5.897114747834172e-07,0.9995654764678452,0.029476401633533766,-2.895414666504409e-08,7.818339900720972e-08,0.08004880759921262,-0.41279689631570865,-0.1576785891539238,9.80000015431402
1727705417.5138712,1.805348400659221e-08,5.894980371337298e-07,0.9996250967637781,0.02738002775125431,8.64832880126172e-08,1.2961491097446554e-07,0.1064416021378635,-0.026931019039076156,0.21098598906364052,9.800001310252405
1727705417.543697,1.706438425182601e-08,5.89723763868578e-07,0.9996674349762256,0.025787970988534026,9.409341491072818e-09,1.2883757443133064e-07,0.10614275587858035,-0.03798366228670046,-0.0008487874418125957,9.799999973316753
1727705417.625976,1.6088902965299414e-08,5.899778244776032e-07,0.9997061403796172,0.024241140380362958,1.1151780650379967e-08,1.234245994282286e-07,0.10111589788028072,-0.021544864881689895,0.007545732946558048,9.799999690742096
1727705417.6562474,1.5150000787604507e-08,5.90126655116741e-07,0.999741632335085,0.022730344819879678,8.408402830569198e-09,1.2212062930456471e-07,0.10070360743501076,-0.0360058714165024,-0.0012572832218711812,9.799999998961159
1727705417.7035012,1.369990701325284e-08,5.892064576582433e-07,0.9997938346890929,0.020304879150874533,1.0008489638860803e-08,1.4888685236803335e-07,0.12334792912468198,-0.048497273270504494,-0.004251047545135536,9.800000072287382
1727705417.9078918,1.2482706854164633e-08,5.870861227174582e-07,0.9998321663739986,0.018320455330910146,-6.026486013425876e-08,1.6432154119421574e-07,0.13915984858297364,-0.11381238170178579,-0.21843118945560677,9.800006531447865
1727705417.920115,1.118417797340834e-08,5.868796804305816e-07,0.9998683929760004,0.016223338967224,-6.292320343428258e-08,1.680559460403041e-07,0.13811736233828675,-0.009894002690696296,-0.21273730111435324,9.799998748592476
1727705417.9618897,9.499820420738584e-09,5.871416759967678e-07,0.9999091346418321,0.013480447302584408,1.5021510472507876e-08,1.6460592210372535e-07,0.13706476843860482,-0.046103646192712476,-0.002537094519056611,9.800000003755923
1727705418.2586255,8.326391259540801e-09,5.880657301718143e-07,0.9999302149964153,0.011813768953086223,1.2969102493026002e-07,1.1911050147425758e-07,0.0889880835325694,0.2206574813397823,0.35470138378927785,9.800001379652127
1727705418.2673988,7.53241724928322e-09,5.883325213272515e-07,0.9999447853172931,0.010508392665217914,1.1930764622705983e-08,1.061762701023546e-07,0.08917923284672706,-0.04633907105759253,-0.003762723602562809,9.800000026009297
1727705418.3087976,6.442032545027594e-09,5.8857715015167e-07,0.9999620074331188,0.008716862393124802,1.166163966651707e-08,1.0745701555529639e-07,0.0896205030327441,-0.03084913962107008,-0.0010611215663861662,9.799999999084662
1727705418.3393757,5.622775938030836e-09,5.885143458823232e-07,0.9999730141821155,0.007346489446505899,-3.6498233626038536e-08,1.1020854270457635e-07,0.0948380374306554,-0.10398687355217144,-0.143698348105516,9.799999217404062
1727705418.3931057,4.746473487872664e-09,5.886540136954841e-07,0.999982609120351,0.0058975805640310575,1.1455704616273791e-08,1.159460874179083e-07,0.09680552236299017,-0.034593113442151595,-0.0018248693728598272,9.800000016880842
1727705418.424688,3.89175601308664e-09,5.881586993132577e-07,0.9999897063647513,0.004537308033731757,1.0203018633708243e-08,1.0784798324232043e-07,0.08995811842158631,-0.025079101047911508,-0.006728944692404076,9.80000028680872
1727705418.682462,2.8294171981790106e-09,5.871479867999912e-07,0.9999958393992909,0.0028846462109478055,-1.7049770028086676e-08,9.013765625528414e-08,0.07367803266379458,0.023373005681632454,-0.08049055188143596,9.800003882794066
1727705418.6877122,2.1802342974289346e-09,5.874921256340832e-07,0.9999983374381388,0.0018234913252246354,1.4200049342443907e-08,8.386094721421526e-08,0.07039412170383741,-0.020800006199961456,0.0010084374328487651,9.799999939438715
1727705418.7072976,1.546283785806521e-09,5.878273573946258e-07,0.9999997123258577,0.0007585168794849717,3.99905472702447e-08,8.466051864639679e-08,0.0723256636512736,-0.05120440120357271,0.06943148600867027,9.800000438726403
1727705418.7948682,6.692015105376e-10,5.88101956888673e-07,0.9999997536636687,-0.0007019061589227382,1.2529710238517729e-08,8.699597472198573e-08,0.07309015777830383,-0.024483414643266272,-0.0006853429221408832,9.799999997167392
1727705418.83189,8.794552235654264e-12,5.882840525211744e-07,0.9999983830246614,-0.0017983180244365848,1.215067233955956e-08,8.700536299037492e-08,0.07309465758773184,-0.024325339090633363,-0.0006907532714517809,9.799999998457892
1727705418.8612955,-6.521842623226401e-10,5.875627355188169e-07,0.9999957846625129,-0.002903559343217399,-8.987324785222508e-09,8.792982393392705e-08,0.07408604764709117,-0.027399563120878746,-0.0631313611675665,9.800002791340344
1727705419.0658333,-1.5436493088485954e-09,5.878056678230588e-07,0.9999903779448963,-0.004386800346176778,1.3107768863322098e-08,8.81330645163178e-08,0.07417016218185146,-0.024316509723878554,-0.0007392848383174029,9.799999999401997
1727705419.073994,-2.212530911135114e-09,5.879940749058187e-07,0.9999848784827967,-0.005499345906586628,1.2729110919868595e-08,8.81349780753482e-08,0.0741706602189505,-0.024298948359234438,-0.0007122734966623223,9.799999998359969
1727705419.102866,-2.8813875907405094e-09,5.881760720469869e-07,0.9999781412453381,-0.006611885598895861,1.2353693359588807e-08,8.813548004790469e-08,0.07417067093586524,-0.02429857164923039,-0.0007121451221537327,9.799999998453586
1727705419.4265876,-3.5289639665360376e-09,5.848837559622031e-07,0.9999702310667896,-0.0077160209881333985,-6.816369223437802e-07,8.799914064442986e-08,0.07249139374428516,-0.003716108489696584,-1.9202761187631265,9.799988570378803
1727705419.4382756,-4.197502647123685e-09,5.831250757791805e-07,0.9999618101299885,-0.008739466872517865,2.1137760528310553e-08,5.7055191412393503e-08,0.048704965866961276,-0.008612474205264262,-0.002872232864511609,9.80000014732129
1727705419.4690645,-4.6246564590476525e-09,5.834147216097175e-07,0.9999551299664644,-0.009473017122910488,1.4954519594017558e-08,5.7143393316607026e-08,0.04957644922294794,-0.02875622161177694,-0.02099055406997671,9.799999886107592
1727705419.498564,-5.062607303496882e-09,5.834634493493279e-07,0.9999479757621846,-0.010200282778866587,-3.109447776805481e-08,5.616312142570873e-08,0.04565888051479886,0.044947281427348024,-0.13691482469726102,9.79999913388168
1727705419.5732214,-5.584612757379779e-09,5.838380287271521e-07,0.9999385748469957,-0.011083615502956112,2.0862007705928757e-08,5.125254340876021e-08,0.044021372304493135,-0.012634068011248962,-0.0002462250955631704,9.799999998543907
1727705419.6033869,-5.965802248189347e-09,5.838092550787154e-07,0.9999311032527198,-0.011738345175436204,1.9766114196283438e-08,5.075518720448784e-08,0.043608024383168326,-0.012468506801937652,-0.0033870622287066176,9.800000140000545
1727705419.8604336,-6.318766588198886e-09,5.812110833694947e-07,0.999923587689401,-0.01236198940376343,-5.596895907880318e-07,4.8270756164143905e-08,0.03753648997698401,0.07022366251257804,-1.5964221099621319,9.799990423779077
1727705419.8704405,-6.662860399021637e-09,5.808740901483247e-07,0.9999165437051919,-0.01291919596280744,2.635899054041012e-08,3.070959359873001e-08,0.026904137489419874,-0.0050599767245513155,-0.0009022004042340636,9.800000045543657
1727705419.8997612,-6.892541242607319e-09,5.812640753560798e-07,0.9999112597250714,-0.013321887054137505,2.5978615751024605e-08,3.056523450005838e-08,0.026841745880369253,-0.007266231519686443,-7.669913022153418e-05,9.799999995065933
1727705419.9328067,-7.122390332754737e-09,5.816426262252234e-07,0.99990581518443,-0.01372445846005138,2.5209712345189014e-08,3.060085328412731e-08,0.0268404053159296,-0.007313656276785332,-8.052765909820009e-05,9.799999995108688
1727705420.0298307,-7.352658574694361e-09,5.820097555424542e-07,0.9999002086013555,-0.014127025115962866,2.446291903404285e-08,3.0639276497880635e-08,0.026840376508599918,-0.007314675270914937,-8.066340019202635e-05,9.799999995270127
1727705420.0698476,-7.584864248638297e-09,5.806555949500365e-07,0.9998945798573016,-0.014519957701460695,2.0741257843233567e-08,1.8266719408516685e-08,0.0161131420211984,0.0041255497923499305,-0.016462169805452655,9.800000785865938
1727705420.2969491,-7.67686955990757e-09,5.779792255506572e-07,0.9998913770909652,-0.014738860837896772,-5.87403680844096e-07,1.6277879679285715e-08,0.011944691109161912,0.049604068485446934,-1.693881771953472,9.799989857839893
1727705420.301653,-7.731578631276699e-09,5.777174470425495e-07,0.9998900670134303,-0.014827470706228085,3.046968638431533e-08,5.15899461956821e-09,0.005190781535832557,0.004025996991357253,-0.006368760930026757,9.800000312581515
1727705420.3368623,-7.769578811037886e-09,5.778684946501688e-07,0.9998886548794934,-0.014922394008453854,3.1023598186817164e-08,4.241075051844144e-09,0.004581639951771058,-0.0007119007383927856,-0.0046837629408501965,9.800000207167914
1727705420.5974293,-7.752502437325251e-09,5.748818460721013e-07,0.9998876413204758,-0.014990154577104009,-6.615589452991453e-07,4.900401805309345e-09,0.004408001858278153,-0.00041363044119378415,-1.921702972817867,9.79998853214068
1727705420.6029217,-7.638368235757e-09,5.6515640135441e-07,0.9998867195785238,-0.01505151189014231,-6.418740903902693e-07,4.251548823745264e-09,0.003935516914733822,-0.00018431198791283755,-1.9215539202214171,9.800002300416736
1727705420.6324618,-7.484777710372839e-09,5.526385427306124e-07,0.9998856439851016,-0.015122795779658138,-6.164981944984558e-07,3.4731889959980785e-09,0.0033480056275430963,3.6231630379965796e-05,-1.921342552886165,9.800002247038453
1727705420.6660907,-7.369042432602449e-09,5.435760824810649e-07,0.9998849458852407,-0.01516888235082886,-5.98126012579177e-07,2.949848524964327e-09,0.0029380407927177693,0.00014413065648742867,-1.9211834445553098,9.800002208358812
1727705420.7006783,-7.3267744362507115e-09,5.402593770229513e-07,0.9998846579979761,-0.01518784711466381,7.298110911240689e-08,-4.6263719962881335e-10,0.00021357063816699983,0.007750467065036322,-0.09701013972324976,9.800004386507709
1727705420.7322354,-7.335345810669889e-09,5.418295740911395e-07,0.9998846519160259,-0.01518824751162523,1.054571548716663e-07,-1.057702425314466e-09,4.5477890550911675e-06,0.00016569413627742996,-0.00023999608998563634,9.799999991227253
1727705420.9833941,-7.34575741119684e-09,5.438884622165765e-07,0.9998846517841911,-0.015188256190571847,1.0139772877714165e-07,-1.0283402874596593e-09,2.6962192784279064e-08,1.000951455227403e-06,1.07207781602856e-05,9.799999979821783
1727705420.9888713,-7.353284098479039e-09,5.453792688200164e-07,0.9998846517834208,-0.015188256241241871,9.838624303617024e-08,-9.97606452291169e-10,5.762694881634453e-10,3.9504409261155023e-08,1.0717984279395167e-05,9.799999980419745
1727705421.0179882,-7.360587487376504e-09,5.468257981760259e-07,0.9998846517834035,-0.01518825624232456,9.546458273023267e-08,-9.679771627484688e-10,1.2312355332393199e-11,1.922914074705745e-08,1.0742908526262053e-05,9.799999981018319
1727705421.0574782,-7.369993494007634e-09,5.486878905007771e-07,0.9998846517834021,-0.015188256242347598,9.170261571479479e-08,-9.295007894098204e-10,6.530356837375354e-14,1.9146267552456045e-08,1.0778396600252708e-05,9.799999981756953
1727705421.1274002,-7.376803552892128e-09,5.500361544163146e-07,0.9998846517834015,-0.015188256242347764,8.897896909635808e-08,-9.021146708417169e-10,-8.271608660974417e-16,1.9399438587172558e-08,1.0804149083304245e-05,9.799999982278786
1727705421.1578107,-7.383411449550074e-09,5.513443788463702e-07,0.9998846517834007,-0.01518825624234782,8.633611151221897e-08,-8.753121844462415e-10,-2.499483239561583e-15,1.9652597695761358e-08,1.0829137212058824e-05,9.799999982795836
1727705421.3682778,-7.406273692775983e-09,5.53029746322562e-07,0.9998867544074839,-0.015049197990647578,8.321332888527564e-08,-1.3345602180441117e-08,-0.027814829085450188,0.389467548486276,0.05379904176417865,9.799999965551807
1727705421.3706126,-6.992617777955083e-09,5.542586654255944e-07,0.9999043552274711,-0.013830415641894855,8.059868589398424e-08,-1.0329443415244293e-07,-0.10734402982073024,0.3624861871778577,0.0478777190818874,9.799999928933156
1727705421.3922687,-5.912956272674471e-09,5.554801696615969e-07,0.9999334262587736,-0.011538762935461633,8.260719004389835e-08,-1.815034182418327e-07,-0.1685132749811421,0.1581823477055207,0.028257765631409363,9.80000002368911
1727705421.660481,-4.474799548769754e-09,5.566587428371927e-07,0.9999599081193566,-0.0089544488170894,7.651639195403342e-08,-1.9388610133939272e-07,-0.17274628800936875,0.0039630129807255296,-0.0036603054391517323,9.79999998664595
1727705421.6653016,-2.1748495584539435e-09,5.581515526955358e-07,0.9999905705220293,-0.0043426796697838,7.26629398501687e-08,-2.8251027207078563e-07,-0.2641991532208914,0.3099936133747282,0.027177139646942843,9.799999953561715
1727705421.6894777,1.6496193357982834e-10,5.593029619881067e-07,0.999999996621868,-8.219459507075033e-05,7.316255681722687e-08,-3.2177093536240284e-07,-0.28639022148220544,0.01929535299478254,-0.00861959369181079,9.799999975031785
1727705421.7177222,2.608840393282396e-09,5.603725076209462e-07,0.9999910957302366,0.00422000710034609,7.084244568107436e-08,-3.2367603473005935e-07,-0.2868646721296772,0.002010599981040006,-0.011456950607126575,9.799999998611328
1727705421.7600613,5.88237363992458e-09,5.617322582098579e-07,0.9999504245006348,0.009957336023491081,6.80205425464753e-08,-3.244172199325821e-07,-0.28687497541328955,0.0016351986559678703,-0.01151158687210002,9.799999999401019
1727705421.8091176,8.38776134600911e-09,5.626761142022201e-07,0.9998935746956635,0.014589012372704657,6.333976568348324e-08,-3.600142458239883e-07,-0.3307287133489477,0.30917593930280757,0.017795997570802084,9.799999966500584
1727705422.069879,1.1389757453293351e-08,5.635558985197042e-07,0.9997958207402853,0.020206851064467124,6.148130279831286e-08,-4.351031826822954e-07,-0.3965046007213915,0.3099795603210262,0.006670214387858741,9.799999979402621
1727705422.074147,1.629053455400722e-08,5.648481380777932e-07,0.9995748490003589,0.02915683874481323,8.215830121778025e-08,-5.285136844644651e-07,-0.47048807542854343,0.1328584902651343,0.0307246775333854,9.8000000030607
1727705422.105032,2.0380549658390723e-08,5.657157994082081e-07,0.9993416149438286,0.036281353904458746,6.473608174648632e-08,-5.415247679335282e-07,-0.47606364511757027,0.012236964522574435,-0.030009696616306068,9.800000006496015
1727705422.1356626,2.4507218062312474e-08,5.664995771984425e-07,0.9990568684221506,0.04342088965238222,6.257427025619388e-08,-5.430724754331146e-07,-0.4763990171764704,0.004960197448763221,-0.031693575147810085,9.800000023343456
1727705422.2414155,2.8645041795116385e-08,5.672248284994142e-07,0.9987210646730673,0.05055922248188216,6.067472516793981e-08,-5.439111977014045e-07,-0.47641918157611035,0.004522192102526567,-0.031765220327849765,9.800000024050455
1727705422.279298,3.417584010395281e-08,5.681026375119587e-07,0.9981939863324667,0.06007300266655036,5.8232632052851274e-08,-5.449374101754788e-07,-0.47642044827867963,0.004494848885815483,-0.031769348235114916,9.800000024626561
1727705422.5002322,3.804962832871546e-08,5.685890733919516e-07,0.9978131862984565,0.06609724085464647,4.806098143017098e-08,-4.426481008447677e-07,-0.36541850694009126,-0.5155167485490502,-0.10649340228969009,9.800000113580401
1727705422.5021305,4.141388742679144e-08,5.690758995978164e-07,0.9973881966780811,0.07222731565633739,4.72843998891968e-08,-4.8023802246973e-07,-0.43157641434474814,0.3103679485081458,-0.00011359037370371126,9.799999989635447
1727705422.5224307,4.6786458359936936e-08,5.69586824341441e-07,0.9966384228766857,0.08192590582682574,4.546718808203746e-08,-5.816781298507606e-07,-0.519257132264869,0.3115298208358681,-0.019624199204644678,9.800000012366526
1727705422.820821,5.1483887105930205e-08,5.698512721411091e-07,0.9959109076197843,0.0903408218006127,4.4186841184556174e-08,-6.579006283768723e-07,-0.5850029023588585,0.31237990661974435,-0.036663071743310786,9.800000032197461
