timestamp,orientation_x,orientation_y,orientation_z,orientation_w,angular_velocity_x,angular_velocity_y,angular_velocity_z,linear_acceleration_x,linear_acceleration_y,linear_acceleration_z
1727705151.647341,6.63979647820714e-07,-1.8419447120086754e-09,-1.4274793883051196e-06,0.9999999999987605,-1.410980577231512e-07,1.4604591132091151e-09,5.825609519863899e-14,3.57126297490059e-08,1.2978174544073119e-05,9.799887057681067
1727705151.6555138,6.619052186366353e-07,-1.820465495640315e-09,-1.4274793875834746e-06,0.999999999998762,-1.3690751929665177e-07,1.4174091792167861e-09,5.3306280226714165e-14,3.5303728816466204e-08,1.2938592725868723e-05,9.799890412173914
1727705151.6870549,6.598924097630669e-07,-1.7996233153835446e-09,-1.4274793866952962e-06,0.9999999999987634,-1.3284112866003532e-07,1.3753409637279484e-09,5.2144702746449356e-14,3.4907099939844906e-08,1.2900192344127139e-05,9.799893667023095
1727705151.7771785,6.573013607345998e-07,-1.7727919379301786e-09,-1.4274793856960954e-06,0.999999999998765,-1.2760597421904227e-07,1.3210541348420466e-09,5.2525326013792735e-14,3.439281014720107e-08,1.285072910794786e-05,9.799897856967224
1727705151.8063917,6.554253120606081e-07,-1.7533642377380073e-09,-1.4274793848634282e-06,0.9999999999987662,-1.2381428021348635e-07,1.2821892486450478e-09,4.366828154855559e-14,3.4028599248253824e-08,1.2814883417717671e-05,9.799900890752225
1727705151.8385797,6.5360499504466e-07,-1.7345137436552385e-09,-1.4274793841417832e-06,0.9999999999987674,-1.201370904500508e-07,1.2435847547140066e-09,5.630536314239977e-14,3.365412427464317e-08,1.278018462082871e-05,9.799903834357046
1727705152.072761,6.512617331127378e-07,-1.7102518622028217e-09,-1.4274793832536048e-06,0.999999999998769,-1.1540217473302892e-07,1.1945483249319235e-09,4.92253604612978e-14,3.3196188075063645e-08,1.2735424425697027e-05,9.799907623693686
1727705152.082723,6.495650863715445e-07,-1.6926847830450137e-09,-1.427479382587471e-06,0.9999999999987701,-1.119749897835966e-07,1.1592044193553543e-09,4.4889385793889346e-14,3.286389381486638e-08,1.2703059603529427e-05,9.799910367347254
1727705152.1126187,6.47918835737904e-07,-1.6756398888687601e-09,-1.4274793819768483e-06,0.9999999999987712,-1.08648948631099e-07,1.1248882284864783e-09,3.796395171790209e-14,3.2547931928477954e-08,1.2671648084133938e-05,9.799913029513375
1727705152.392016,6.457996400093996e-07,-1.653700363917958e-09,-1.42747938108867e-06,0.9999999999987725,-1.0436821900174065e-07,1.080378252012692e-09,4.169186135470814e-14,3.211937617453831e-08,1.2631203881844956e-05,9.7999164564954
1727705152.3945887,6.442652288267787e-07,-1.6378140276679257e-09,-1.4274793805335584e-06,0.9999999999987736,-1.0126772701231058e-07,1.048352794103331e-09,3.853582621552045e-14,3.1820139588253706e-08,1.260190402599091e-05,9.799918937838235
1727705152.4203126,6.427763942152835e-07,-1.6223980830495695e-09,-1.4274793799784469e-06,0.9999999999987745,-9.82595546696659e-08,1.0173192850434026e-09,3.551629877060978e-14,3.152979890304629e-08,1.257347282106949e-05,9.799921345480987
1727705152.4531968,6.413317856315436e-07,-1.6074372663162041e-09,-1.4274793794788465e-06,0.9999999999987755,-9.534117469112277e-08,9.872197264763306e-10,3.83717412969349e-14,3.123679681817069e-08,1.2545917297910616e-05,9.799923681572471
1727705152.5076058,6.394721759689682e-07,-1.58817616780406e-09,-1.4274793787572015e-06,0.9999999999987768,-9.158376819558209e-08,9.484333667282866e-10,3.608729167639874e-14,3.087046765942614e-08,1.2510421510949095e-05,9.79992668882208
1727705152.5393848,6.381257245180052e-07,-1.574233032231969e-09,-1.4274793781465789e-06,0.9999999999987774,-8.886287172232613e-08,9.201347183261129e-10,3.290157460539377e-14,3.0608809854167415e-08,1.2484716814966284e-05,9.799928866248349
1727705152.7659924,6.368192681014786e-07,-1.560706805521916e-09,-1.4274793776469785e-06,0.9999999999987784,-8.62232003729206e-08,8.924867278601977e-10,3.6799145212591565e-14,3.034339183870432e-08,1.2459783328825235e-05,9.799930978980896
1727705152.7755628,6.351374974095518e-07,-1.543294126684402e-09,-1.4274793769253336e-06,0.9999999999987794,-8.282547721954275e-08,8.573466045320832e-10,3.356639924611794e-14,3.0013949215212973e-08,1.2427687109712428e-05,9.799933698682839
1727705152.8063161,6.339198009319779e-07,-1.5306870534867343e-09,-1.4274793764257332e-06,0.9999999999987802,-8.036477049845546e-08,8.318720429024861e-10,3.222005813028642e-14,2.9773467024022038e-08,1.2404414420483277e-05,9.799935667927208
1727705152.836834,6.327382765278892e-07,-1.5184544641244837e-09,-1.4274793762036886e-06,0.999999999998781,-7.797814463102254e-08,8.071680082316076e-10,3.1188558347830797e-14,2.9540064949942324e-08,1.2381883509215997e-05,9.799937578636463
1727705152.9275851,6.312173161504693e-07,-1.5027080941295371e-09,-1.427479375648577e-06,0.999999999998782,-7.490508514195246e-08,7.756119059813961e-10,2.4683249225549852e-14,2.9243741873702296e-08,1.235284572034743e-05,9.79994003828766
1727705152.9594302,6.30116060137197e-07,-1.491304737938453e-09,-1.4274793750934656e-06,0.9999999999987826,-7.268050388287551e-08,7.524951005127293e-10,2.884228318268733e-14,2.9021361378737063e-08,1.2331831560203282e-05,9.799941819204754
1727705153.1929882,6.290475166467118e-07,-1.4802399546297996e-09,-1.427479374538354e-06,0.9999999999987832,-7.052192828095895e-08,7.303113511933236e-10,2.3430991921741406e-14,2.881593985003445e-08,1.2311455496874745e-05,9.799943547212889
1727705153.1954637,6.280107135032951e-07,-1.4695033952643478e-09,-1.4274793740942648e-06,0.9999999999987839,-6.842614807558947e-08,7.083517660489525e-10,3.131528328605843e-14,2.859967282197054e-08,1.2291625722792793e-05,9.799945223953197
1727705153.2224512,6.266760579697529e-07,-1.455680699853469e-09,-1.4274793735946645e-06,0.9999999999987847,-6.572990152958464e-08,6.805527952375847e-10,2.7761420623970494e-14,2.8339706698756753e-08,1.2266174698706787e-05,9.79994738233361
1727705153.484911,6.257114073093118e-07,-1.4415360054056103e-09,-0.00014050148823496755,0.9999999901294705,-6.347670536616786e-08,-1.5925306933656926e-08,-0.027814801136224324,0.38946734747539474,0.05419162763634928,9.799948919465482
1727705153.4872577,6.247771007910289e-07,-1.938204322319991e-09,-0.001359409437294179,0.9999990760023688,-6.180426279713952e-08,-1.1711975945846395e-07,-0.10734392638888801,0.3624866789717321,0.04824291705122339,9.799950398852983
1727705153.527612,6.235914727621005e-07,-3.696667157405396e-09,-0.004509422072498659,0.9999898325044024,-5.836983212696627e-08,-2.1257229320896216e-07,-0.1716382531668252,0.044336161833995164,0.0032148902829280965,9.799952347711777
1727705153.5586977,6.227200411719379e-07,-5.309770775082262e-09,-0.007099702502478766,0.9999747967943934,-5.7072731069124904e-08,-2.157564787618029e-07,-0.17281309811026285,0.00152856279960852,-0.0040337310288737415,9.799953831374149
1727705153.5887048,6.218695569983025e-07,-6.923571725070045e-09,-0.00969214360876669,0.999953030072853,-5.5390249338171934e-08,-2.1552485896348495e-07,-0.17283821493492746,0.0006133153743845706,-0.004167686316787179,9.79995520332268
1727705153.6314402,6.207719284212251e-07,-9.225070352998222e-09,-0.01355908860272792,0.9999080713324989,-5.284668862623574e-08,-2.522082961807616e-07,-0.20345248354342788,0.02519692466378053,-0.0023386097601383916,9.799956959963996
1727705153.8831298,6.230370969614071e-07,-1.1171843391598077e-08,-0.016596631989289734,0.999862266417842,5.624989249068873e-07,-2.517865116000751e-07,-0.1995725799296733,-0.06421810050414414,1.687319840065329,9.799968241543114
1727705153.8874729,6.231346088138631e-07,-1.3186317138557181e-08,-0.019994003186244613,0.9998000999380825,-6.220565891657468e-08,-2.925656286818957e-07,-0.23647753061136087,0.08094506532553059,-0.010829332704073436,9.799960072719164
1727705153.90626,6.222426716146141e-07,-1.54053695937803e-08,-0.02356716454104979,0.9997222558066352,-5.558533107638611e-08,-2.980891304118885e-07,-0.23848012071255112,0.008086875494438883,-0.00774962440299905,9.799960697758788
1727705153.9456005,6.203991238636727e-07,-1.8344613188465673e-08,-0.028416623538459806,0.9995961662122799,-1.906037632551568e-07,-3.069950306455379e-07,-0.2546653400193559,0.23334164851269082,-0.35841743749346716,9.79995999417485
1727705154.0108764,6.194516427005569e-07,-2.0736088005588468e-08,-0.03231815694582829,0.9994776319314207,-5.030044897902856e-08,-3.244583661197913e-07,-0.26088253203556444,0.010999080345889171,-0.009944484508894407,9.799963418281
1727705154.0409093,6.180819490242287e-07,-2.319399946685871e-08,-0.03653245552997331,0.9993324670461616,-1.55660991118386e-07,-3.612553576152405e-07,-0.29950390374741154,0.24032672880994652,-0.2791534053375009,9.799962734704247
1727705154.2874215,6.168581316958325e-07,-2.694587107883258e-08,-0.04247214278540207,0.9990976514269438,-4.81118290232129e-08,-3.5898574012287644e-07,-0.27008752411500525,-0.5119348704359172,-0.09168383395890788,9.79996584855294
1727705154.2902415,6.16058840581206e-07,-2.9101908469174728e-08,-0.045422519959897156,0.9989678646884054,-4.656581465133649e-08,-2.2226892174432408e-07,-0.1609479381000592,-0.4957604468696956,-0.07707350098681383,9.799966959597946
1727705154.3157976,6.151431016882002e-07,-3.0248053164261845e-08,-0.04681703240635643,0.9989034815617988,-8.12021284658944e-08,-9.522528263016588e-08,-0.0607836984477608,-0.4391432106457246,-0.1633816433613911,9.799967336724238
1727705154.6336348,6.151836732855778e-07,-3.061019203122787e-08,-0.047108339325750925,0.9988897858951158,5.867059600582959e-07,-4.5502525996665425e-09,-0.0038402756066926993,-0.0006003383393935117,1.73081212324451,9.79998071563302
1727705154.638095,6.237983004647725e-07,-3.1047614475960814e-08,-0.04716196233260589,0.998887255554173,5.692506752373077e-07,-4.144712442328046e-09,-0.0034516272965340947,-0.0002593392913709813,1.730684470269509,9.799967745831724
1727705154.6603696,6.267331663269765e-07,-3.132979533885008e-08,-0.047649090412637596,0.9988641369988485,1.1971101029893155e-07,-5.128564743442528e-08,-0.050972994409628214,0.26621327454628346,0.5494728159782742,9.799969558105
1727705154.688035,6.282445605435341e-07,-3.205487478746792e-08,-0.048965370686586907,0.9988004768086214,9.335724552295237e-08,-1.2186104500452116e-07,-0.10566985707736301,0.2538250228627271,0.48172368854874315,9.799970936094827
1727705154.729349,6.274366334814927e-07,-3.339524355580817e-08,-0.05115782285900988,0.9986905812912883,-6.859912723357012e-08,-1.39123478254619e-07,-0.11016663536179513,0.01321211852520304,-0.0006716041990760282,9.799972864175698
1727705154.768174,6.27485879897423e-07,-3.438157476349259e-08,-0.05255128189517938,0.9986182267367136,-2.9794566701165348e-08,-1.0674362771282533e-07,-0.08078844986043954,-0.0920950321021947,0.09328836444724406,9.799970686712767
1727705155.0258448,6.264617620238241e-07,-3.507870811855644e-08,-0.053724617473054015,0.998555789867036,-6.71721802935627e-08,-9.829133801036008e-08,-0.078041077245391,0.0069477780704297444,-0.0008455389873784963,9.799974476324905
1727705155.0291753,6.356286297227138e-07,-3.654474387497549e-08,-0.05527151526934926,0.9984713614317763,1.904022534069145e-07,-1.0160171789030719e-07,-0.08659578275199598,0.20748538425420265,0.7841156424141474,9.799967481160994
1727705155.0585642,6.362248295405477e-07,-3.7587939250738e-08,-0.057032687283495864,0.9983723116056538,-5.917225894264336e-08,-1.5997060702701305e-07,-0.12702950785595823,0.09631845289093277,0.08435763829948598,9.799973235414306
1727705155.089614,6.349000019267371e-07,-3.8759922498341504e-08,-0.058961398111196495,0.9982602634245081,-8.439802780884913e-08,-1.6564734919316022e-07,-0.1290079635003972,0.025837471410157718,-0.0018529886049109417,9.799976924508288
1727705155.2009737,6.344081830209248e-07,-4.053627802281072e-08,-0.06181382006616459,0.9980876973735442,-8.296781337046275e-08,-1.8517089314248716e-07,-0.14425980917514433,0.03151612782794323,-0.0006640084381059442,9.799977765530778
1727705155.2284024,6.343242269129658e-07,-4.193802798725566e-08,-0.06395204887383571,0.9979529725615504,1.6495149196643398e-07,-1.8250496704143488e-07,-0.13982337777555254,-0.03549248011876728,0.6708156389725122,9.799982494713682
1727705155.4715993,6.332087136844209e-07,-4.321760863127639e-08,-0.06602230614672011,0.9978181473047409,-8.090874623621816e-08,-1.7715805591968875e-07,-0.13812981420333253,0.026778093945460376,-0.0009047266995511809,9.799979056410569
1727705155.4754634,6.216443135288279e-07,-4.373684557562192e-08,-0.0679986098972844,0.9976854158759907,-7.593735513848034e-07,-1.6419556716799243e-07,-0.1290639865258548,-0.018858327435237503,-1.931618649746306,9.799982302472861
1727705155.4843087,6.067659710423967e-07,-4.42527251633417e-08,-0.07043081766317955,0.9975166664887989,-7.293542775326823e-07,-1.454195766714772e-07,-0.11770902457160749,-0.027378323956142744,-1.9303080686566256,9.799983035857267
1727705155.7784827,6.016204708511786e-07,-4.5026159500016324e-08,-0.07251682604437237,0.9973671891234874,-1.908338236423155e-07,-1.7777795971865582e-07,-0.15638536210292076,0.24446504796255933,-0.44455919585410625,9.799983233574237
1727705155.7813492,5.985139515720492e-07,-4.6336286888278215e-08,-0.07531041330076799,0.9971601384171487,-1.6997902512486605e-07,-2.3362183412250696e-07,-0.2031620732251337,0.2374630358503619,-0.4084824358829023,9.799982466560046
1727705155.790536,5.951810623162058e-07,-4.879949353211396e-08,-0.0801607288011631,0.9967819508587169,-1.5028981254044896e-07,-3.092834304556479e-07,-0.26678808390384373,0.22245164913636772,-0.380324344745622,9.799982938352061
1727705155.8287098,5.935162900765031e-07,-5.118895795447611e-08,-0.08453187567565185,0.9964207755734528,-2.3971479695818006e-08,-3.549087447617892e-07,-0.29960327127011926,0.060595033029883706,-0.06834145536328291,9.799984932334564
1727705155.8577418,5.932585976343721e-07,-5.3870952897131403e-08,-0.08902991520086834,0.9960289524903236,-6.369607445182518e-10,-3.594007143503081e-07,-0.30117165595883627,0.003048901740124917,-0.012692941901630938,9.799983454133953
1727705155.9121218,5.929221483182061e-07,-5.7507553857065795e-08,-0.09526320241061031,0.9954521195246511,1.6097056780826582e-11,-3.872447243880864e-07,-0.3286573003674478,0.11035043230375119,0.00019750008796677997,9.799984066393423
1727705156.1675794,5.926357883172668e-07,-6.045935703682475e-08,-0.10021749459590712,0.9949655540653477,6.569396433440435e-11,-3.965225866424673e-07,-0.3322579476351127,0.005056636248735857,-0.01505659395927217,9.799984574765146
1727705156.1695821,5.92260711635182e-07,-6.359629951622982e-08,-0.10582911395336547,0.9943843314531313,-3.5508371561612912e-09,-4.6087908553270643e-07,-0.3980350060634932,0.3100822681561451,0.006659737082193735,9.799985007065327
1727705156.1765914,5.919350273437213e-07,-6.733595823051384e-08,-0.11241029258477436,0.9936618771597561,2.3280116397453566e-08,-5.387991537015743e-07,-0.46230343195561396,0.2896316131912125,0.06486566878528623,9.799985908759645
1727705156.2195163,5.913858341555473e-07,-7.294110780148196e-08,-0.12181291614004996,0.992553078409967,3.89619569147351e-09,-5.675366032105652e-07,-0.4751493309007079,0.01120324759369734,-0.03048812617429826,9.79998606457311
1727705156.313504,5.90908849918515e-07,-7.718690461634851e-08,-0.12888760665719823,0.991659208019481,3.7060544208563973e-09,-5.681967316229852e-07,-0.4754406647040515,0.004877500836677102,-0.03158075688957539,9.799986485208525
1727705156.3454227,5.903618119139556e-07,-8.141835612315527e-08,-0.13606520835581043,0.9906998834534778,-4.185018944706083e-09,-5.799922978818523e-07,-0.497380182275397,0.31196128822191854,-0.01412624670783868,9.799986740420607
1727705156.565844,5.896377159681533e-07,-8.747253940761033e-08,-0.14623725673602017,0.9892495462429933,4.864312304432803e-09,-6.168159719446895e-07,-0.5163449878324466,0.015215643666916218,-0.035722896357751666,9.799987404896623
1727705156.5681646,5.888494549942155e-07,-9.222859287104676e-08,-0.15454449788804586,0.9879858289328731,-4.3270135080691856e-09,-6.814988974710526e-07,-0.582109698942141,0.3134639213996215,-0.03557818835435462,9.799987786194366
1727705156.5793755,5.882024581282482e-07,-9.760991449529801e-08,-0.16377938998091363,0.9864969900699769,5.198676905266238e-08,-7.564314521852076e-07,-0.640861129960892,0.2153291400648746,0.0888595118769017,9.799989101742417
1727705156.883032,5.871397342444785e-07,-1.0529860525228346e-07,-0.17656923496398452,0.9842882226583214,9.753619767372003e-09,-7.778769874432079e-07,-0.6502484733397614,0.013256159005429645,-0.05810906535585581,9.7999886350078
1727705156.8851335,5.859669938476451e-07,-1.1121583521274677e-07,-0.1868071887045067,0.9823965972294302,-5.04120715839284e-09,-8.423301357833618e-07,-0.7160022360819877,0.31666693561053455,-0.07645661178495464,9.799989007101871
1727705156.8937454,5.851098469650853e-07,-1.1779440777497254e-07,-0.19788899567325097,0.9802244362344146,2.959813236440755e-08,-9.098788328097193e-07,-0.7641073727344118,0.11693940922587594,-0.025619723530716145,9.79998864373933
1727705156.9259956,5.839389724440561e-07,-1.246044613385077e-07,-0.20916789932617585,0.9778797420394383,1.4765836254458837e-08,-9.205123026266444e-07,-0.768698963329443,0.01800226197027357,-0.08127261776624752,9.799989645928838
1727705156.970213,5.822100137176335e-07,-1.3368606925719582e-07,-0.22418131855235257,0.9745474521088092,1.3951454981592624e-08,-9.214674131404025e-07,-0.7689859288616367,0.011782879654265062,-0.08276518608359038,9.799990072091301
1727705157.029451,5.808135554104048e-07,-1.404797620397815e-07,-0.2354074354416908,0.9718967740137885,1.3485035171143231e-08,-9.217087052539133e-07,-0.7689924429451536,0.011641663161263298,-0.0827868168514253,9.799990369989922
1727705157.065902,5.79258904011002e-07,-1.4742488354968802e-07,-0.24720122721255322,0.9689641651084164,4.875566337150178e-08,-9.81814598113153e-07,-0.8268666553363159,0.2084193659716079,0.021851508611446063,9.799991631516212
1727705157.3503265,-5.766586294130902e-07,1.5725829714347903e-07,0.26393111048685136,-0.9645415330180551,-7.580059086134113e-09,-1.062499308406192e-06,-0.898105093304632,0.32192335349348206,-0.1457835932017364,9.799991109058533
1727705157.3555872,-5.750860418747988e-07,1.654020734550829e-07,0.27738170944280666,-0.9607597968619567,4.100988681485949e-08,-1.1247367258028942e-06,-0.9403311657175688,0.09796374216871029,-0.060950246983288825,9.799990130351233
1727705157.3854988,-5.789817279777101e-07,1.7543840576130006e-07,0.2908304428752667,-0.9567746095589129,6.427799839408066e-07,-1.126634923163543e-06,-0.9276661458357645,-0.08562833204117914,1.6051269263104782,9.799989393209454
1727705157.4980142,-5.863287202589382e-07,1.8959830938280676e-07,0.3081264497082212,-0.9513454109784876,3.6218089370337207e-07,-1.1110588717100171e-06,-0.8862198425374589,-0.1909785113683836,0.8907952408625589,9.799985527701844
1727705157.5312488,-5.862181848026838e-07,1.981848214050819e-07,0.3201618892725779,-0.9473628474122419,-5.171503340602593e-08,-1.0435889254002409e-06,-0.8162681839136363,-0.3990769664288574,-0.23554551118947856,9.799987101352512
1727705157.5688422,-5.836439557799088e-07,2.051103721917677e-07,0.33083062592275053,-0.9436901488047751,-1.260893273813566e-08,-9.224510988008814e-07,-0.7302356625794705,-0.13362497345595814,-0.054797967576924435,9.799991583781692
1727705157.7713494,-5.830315460771118e-07,2.1210383018188248e-07,0.34082575581402474,-0.9401264830720459,6.287272109761409e-08,-8.758438734817404e-07,-0.6960981639201532,-0.014454904156473122,0.192083939452007,9.79998726093266
1727705157.785117,-5.799374613564171e-07,2.2021068011038834e-07,0.3536247267865486,-0.9353873810377997,-4.765962408789751e-08,-8.476347063200031e-07,-0.6756007055450574,0.05157028792966347,-0.095087453316364,9.799992362448851
1727705157.815273,-5.769102673893281e-07,2.25859169181638e-07,0.36300050739852935,-0.931788941567792,-5.364759001944933e-08,-8.346610571904553e-07,-0.6664605076788326,0.05350714005995088,-0.11201925194969352,9.799993168568172
1727705158.0816283,-5.73917494123125e-07,2.313019858322954e-07,0.3717463659399579,-0.9283343360072662,-5.2615788079300824e-08,-7.601304013035434e-07,-0.5903802564620071,-0.4235274455199511,-0.15877253936750457,9.799993436930912
1727705158.1120336,-5.710183445692391e-07,2.3762000062333131e-07,0.38163908875510894,-0.9243114225918596,-1.0454707485279373e-07,-6.493656620548693e-07,-0.5155235287408466,-0.0780584205711686,-0.23104068114611498,9.799992180438744
1727705158.1399248,-5.684574558204082e-07,2.417464665635533e-07,0.3886569147778001,-0.9213825495390178,-5.006992673509603e-08,-6.281994186555194e-07,-0.503784712556906,0.026780066834816457,-0.06702776151615751,9.79999377919322
1727705158.1723385,-5.652765191142557e-07,2.454683251699817e-07,0.39546832034896773,-0.9184796174112884,-7.106372326860194e-08,-6.075572517820426e-07,-0.48803254474541674,0.008729247376601856,-0.13094467337118004,9.799996102953529
1727705158.2402072,-5.620462116785967e-07,2.5061676992473036e-07,0.40426713777059925,-0.9146409575994224,-4.538861671132327e-08,-5.897240738521217e-07,-0.47515400969500354,0.01909194182343977,-0.060455481788431735,9.799994198745301
1727705158.2707756,-5.590647514193427e-07,2.5401280857935095e-07,0.4105097166801352,-0.9118562235960326,-4.2775777058258486e-08,-5.585443650794475e-07,-0.4512476599613891,0.012524134809877081,-0.055609007999540876,9.799994829829584
1727705158.494119,-5.508302174722575e-07,2.548068920683282e-07,0.41653098892643997,-0.9091215184251187,-6.937050344139743e-07,-5.346548831736234e-07,-0.4337535730601956,-0.04510577982993477,-1.8857151061737063,9.799996888412677
1727705158.5222077,-5.434442959628063e-07,2.557041330579213e-07,0.42245353927891416,-0.9063845801591939,-2.6755020747274195e-07,-5.275031357876731e-07,-0.44392015036887467,0.16518476380866454,-0.7197955335353905,9.799996449843615
1727705158.5621119,-5.380667330757906e-07,2.592981145974198e-07,0.43111789297981695,-0.902295606967188,-1.5402071706102624e-07,-5.889917867476508e-07,-0.5011259367712106,0.23162736938297018,-0.4283719062213478,9.799995425411469
1727705158.6297686,-5.340630457593788e-07,2.6246957395095265e-07,0.4382896775722317,-0.8988337769205577,-1.4749794461968695e-07,-6.398883315632679e-07,-0.5458141830966279,0.22861177134403968,-0.4333360680519785,9.799995542780659
1727705158.6624923,-5.299427683153336e-07,2.6598663830446334e-07,0.4460347365727939,-0.8950156500140578,-1.4183295259966622e-07,-6.905698595329421e-07,-0.590610402365696,0.2239782463656073,-0.4413064059058659,9.799995698007194
1727705158.7043893,-5.261107291396003e-07,2.719868452172119e-07,0.4567520393140373,-0.8895940504421762,-4.6012811452390615e-09,-7.067673886778661e-07,-0.5960607494810161,-0.027065272124615108,-0.10552533248737422,9.79999541450317
1727705158.9044073,-5.237203205977427e-07,2.767486203896274e-07,0.464965664663165,-0.8853287133511429,1.1775952346962189e-09,-7.417333590133285e-07,-0.6389287304427509,0.314993860838743,-0.051898863288368145,9.799995527251246
1727705158.90961,-5.210039584710759e-07,2.8192176071022967e-07,0.4740081430239189,-0.8805204599250748,1.0350472117903653e-09,-8.200842193867849e-07,-0.7046750427051967,0.31586663288540096,-0.07269521627582397,9.799995686616372
1727705158.9729311,-5.175420911144633e-07,2.897898708520187e-07,0.48683532548643926,-0.8734937697878336,1.974776613106138e-08,-8.719284093860199e-07,-0.7357793314788591,0.027806266101378728,-0.07025327903397391,9.799995784708956
1727705159.2492275,-5.201109047094904e-07,2.9876786747514616e-07,0.49635460873729903,-0.8681198663692029,6.511220245675973e-07,-8.670377851122356e-07,-0.7212942457761153,-0.09243386399624541,1.686533189379628,9.79999374753487
1727705159.2610846,-5.25152633354979e-07,3.0919105179884485e-07,0.5055286996896733,-0.8628097900404796,6.316863411633546e-07,-8.568438077616424e-07,-0.6994393415800801,-0.05215484712669102,1.6945296754942696,9.799993830938114
1727705159.2903993,-5.298714013291194e-07,3.1946707794808e-07,0.5143707227241442,-0.8575679329381777,6.127792562607109e-07,-8.460268437217356e-07,-0.6782605702556146,-0.014254474373621834,1.7020182148385796,9.799993911975243
1727705159.330652,-5.315805563934899e-07,3.3053923113167393e-07,0.5260072507688893,-0.8504800833283297,1.9253590547917458e-07,-8.650090831434861e-07,-0.690551391077755,0.26529114744786175,0.6200342357607954,9.799990684009925
1727705159.398315,-5.286295617739327e-07,3.365582130132795e-07,0.5348951433409017,-0.8449184491002213,-2.1938565450367265e-08,-8.855734523707972e-07,-0.6991775452232127,0.13882711498444328,0.01212539214469237,9.799995640893917
1727705159.427315,-5.203560114719305e-07,3.3915516529825185e-07,0.5436031436334935,-0.8393423748574818,-7.235178804583304e-07,-8.647212806864248e-07,-0.6827664004342335,0.056425059985864064,-1.9508680468153505,9.799999080245033
1727705159.6292408,-5.061012686671046e-07,3.4005351712759474e-07,0.5550370383127491,-0.8318256344334671,-7.006524721764635e-07,-8.40129214616987e-07,-0.6780729542225684,0.010734959606078127,-1.9499637278128163,9.799999167470107
1727705159.6333706,-4.954306825943733e-07,3.402805124171917e-07,0.5633476874051284,-0.8262199362729832,-3.6752045454609395e-07,-8.049992539728619e-07,-0.6697559559460022,0.1415732177852861,-1.0554867850390295,9.800004337639146
1727705159.6662178,-4.886463297527434e-07,3.4303350831505437e-07,0.5718512822828613,-0.8203573068798075,-2.669315835465249e-07,-8.29421527598233e-07,-0.6979648886526187,0.1768867977408321,-0.8031117934679045,9.799997855215011
1727705159.7788827,-4.809627281112422e-07,3.480493143833241e-07,0.583786350161661,-0.8119073206743329,-1.4199138867569726e-07,-8.854734650797154e-07,-0.7534866792267868,0.24238271677002252,-0.4857552628400176,9.799997680645301
1727705159.8108978,-4.7531439287607393e-07,3.5237228428382004e-07,0.5932933217326736,-0.8049863566465335,-1.3392947312014104e-07,-9.361460092877573e-07,-0.7992262730399456,0.2367639907311804,-0.49110660750206725,9.799997680828584
1727705159.8434458,-4.7320924641251193e-07,3.597643257527241e-07,0.6030754674916998,-0.797684135801455,6.608711905982464e-07,-9.63104622088839e-07,-0.8105614783183143,-0.1050593625724204,1.6535679184379868,9.800008367632289
1727705160.0408728,-4.7655399034543934e-07,3.714104757957916e-07,0.6125543547203506,-0.7904284676760889,6.411780441007787e-07,-9.552800860596175e-07,-0.7885227700716061,-0.059624678404794955,1.6627139051033903,9.799995092161149
1727705160.0573628,-4.804883979903085e-07,3.8666834882688224e-07,0.6246662803390092,-0.7808918223461211,6.157255965556602e-07,-9.439128282357922e-07,-0.7603255751639628,-0.002713171664451224,1.674002805321234,9.799995150575349
1727705160.0921662,-4.828509558698299e-07,3.9772617822531967e-07,0.6333860894834196,-0.7738359397498349,5.631476428412713e-07,-9.364974783407567e-07,-0.7423248005465111,0.05753636647484319,1.5888903498670215,9.799995066027357
1727705160.3575175,-4.79446693447152e-07,4.04064570718554e-07,0.641823383562157,-0.7668524918864325,-7.707998081724849e-07,-9.260484184939794e-07,-0.7243535328852649,0.12144396681233958,-2.0557360739492236,9.799975126396136
1727705160.3733487,-4.66666992283274e-07,4.048314530850288e-07,0.6521590351866206,-0.7580821807852196,-4.008710873899209e-07,-8.211333052974126e-07,-0.6467686765865985,-0.18030465323859993,-1.1018102401606693,9.80000020734825
1727705160.4043896,-4.5965161369677056e-07,4.064387240950481e-07,0.6588898210171046,-0.7522394590552075,-2.667245893111084e-07,-7.178985814444704e-07,-0.567112307947337,-0.28583075001251135,-0.7451928933992716,9.799998803539136
1727705160.4387872,-4.5344222288670255e-07,4.0762385003113924e-07,0.6646516865983164,-0.7471533547416097,-2.5742980478474334e-07,-6.110858188307551e-07,-0.48497275574096144,-0.31235525457020163,-0.7214123146019321,9.799998655473223
1727705160.5032678,-4.460865945628727e-07,4.082881134150596e-07,0.6708517278415803,-0.7415915043011215,-2.502930172134649e-07,-4.709332025707934e-07,-0.37535075790627903,-0.3388856707541813,-0.7082770346210777,9.79999871790744
1727705160.533802,-4.4746418117877084e-07,4.138713719127482e-07,0.6746477729127265,-0.738139812300845,5.968994960195186e-07,-4.099112043901045e-07,-0.3361590316416578,-0.0488178143661769,1.6920612389682852,9.799995706797297
1727705160.7887654,-4.51900449084186e-07,4.2204065129780574e-07,0.6782327852565775,-0.734847119476373,5.791790886562261e-07,-3.95371387975687e-07,-0.3187178764627334,-0.03251912812163341,1.6948684528881268,9.799995739238563
1727705160.7922971,-4.5617776482108387e-07,4.299760369710967e-07,0.6816122459362786,-0.7317135684059093,5.619762159381847e-07,-3.802299603806198e-07,-0.30153609446456503,-0.018107571275226702,1.6974612104074738,9.79999577125066
1727705160.8171444,-4.610244227302736e-07,4.3959385406344413e-07,0.6858332276478091,-0.7277587401424889,3.65823260928496e-07,-3.633836040130334e-07,-0.28619673714829125,0.10030905042975756,1.2316496595830608,9.79999298915687
1727705160.8481371,-4.599341723188349e-07,4.425281660010976e-07,0.689251505774844,-0.7245221610045498,6.010652784203725e-08,-4.114090512045916e-07,-0.3287422232914577,0.30446712823038685,0.4206246303095382,9.799997479084215
1727705160.8794346,-4.5830131944991414e-07,4.455264335820619e-07,0.6930422134965384,-0.7208970039550795,-4.924734784543158e-08,-4.567663229313151e-07,-0.3574123937844171,0.1842205102542907,0.10201669980766293,9.799995673075555
1727705160.9191756,-4.5394713986279635e-07,4.476481286285114e-07,0.6980355150123583,-0.7160631395212473,-8.586018918701716e-08,-4.3840008030839367e-07,-0.3407777706218045,0.08958042455129787,-0.01793942824958933,9.799998285140928
1727705161.164019,-4.5296029144955066e-07,4.513002050986082e-07,0.701662155006391,-0.7125098036036966,5.362191244036787e-07,-4.3307318605159486e-07,-0.3348291255023784,0.02902460407032846,1.692714742086453,9.80000840096574
1727705161.1961098,-4.56311230480864e-07,4.5914760995217095e-07,0.7051172580799978,-0.7090907222332884,5.202659647200098e-07,-4.182144940003377e-07,-0.31869459182702836,0.04171886190425364,1.6952567432840278,9.799996074550203
1727705161.2435157,-4.545768922535615e-07,4.633765065437188e-07,0.7096333043528095,-0.7045711982141274,-9.179632952943858e-08,-4.1769625624311975e-07,-0.31826656718233176,0.12016885039826813,0.03473855489315395,9.79999622451227
1727705161.5208771,-4.5331550894697785e-07,4.665897925703528e-07,0.7129634769246144,-0.7012011698301291,4.900321279382458e-07,-4.12194051008261e-07,-0.31152897338385116,0.03657593639637012,1.629109879586272,9.800008147791463
1727705161.5226543,-4.531093700153617e-07,4.7050953292516273e-07,0.7158008784805129,-0.6983044481929777,2.1086113251252058e-07,-3.4134125257410437e-07,-0.250339253768356,-0.1424582875153725,0.8610212500433267,9.799999180409737
1727705161.5472145,-4.518139948985663e-07,4.7241911921624023e-07,0.7180262526433359,-0.696016020300209,-9.423996206619444e-08,-2.6885847680572285e-07,-0.20247255088504965,0.01843625648062269,0.05606290662787844,9.799995361312147
1727705161.5880725,-4.4831550707140227e-07,4.7257815637346725e-07,0.7208120804722502,-0.6931305393970474,-1.159909034801176e-07,-2.612744213450632e-07,-0.2003503527906077,0.09226470161131507,-0.005441496631596412,9.799998657626372
1727705161.6549342,-4.468138917474169e-07,4.7376198118739054e-07,0.7228003747848544,-0.6910568849309368,-1.1040214047164259e-07,-2.4842169414346954e-07,-0.19047571447277842,0.08208235597885855,0.008594018218774164,9.799998042877403
1727705161.6910143,-4.4698749426825186e-07,4.7659792895462426e-07,0.724640642639623,-0.6891269397102447,1.4683807945592224e-07,-2.2377353252031572e-07,-0.16162762220444965,-0.1894754341284345,0.6909636677599862,9.799992816295827
1727705161.926638,-4.437610585854773e-07,4.7610826130274195e-07,0.7266497976556093,-0.6870080578615058,-2.2062199464742215e-07,-1.7831880965010561e-07,-0.12317394443123349,-0.33744933869030713,-0.34872654898309924,9.79999711877994
1727705161.9297326,-4.426528707939003e-07,4.764633613267429e-07,0.7277344164627426,-0.6858590373358132,-7.41260612252984e-08,-1.3147003709006208e-07,-0.10292080402086305,0.03346807046376809,0.10578369395896094,9.799993870345018
1727705161.9568,-4.4083730386592944e-07,4.7592126829338816e-07,0.7287879185836521,-0.6847394904093725,-1.1069370424518271e-07,-1.2970507283672485e-07,-0.10243401348369327,0.05047441024807076,-0.0011671260528247393,9.799998842784795
1727705161.9953694,-4.3844400585619723e-07,4.7521514758869225e-07,0.7301890680906746,-0.6832451425663075,-1.0646349999700176e-07,-1.293572188387576e-07,-0.10242336138996903,0.05084258734708291,-0.0014189361773365762,9.799998901568426
1727705162.026922,-4.371957897800485e-07,4.752535306007452e-07,0.7312237743296557,-0.6821376634189579,-1.0221542419374806e-07,-1.2731032518324796e-07,-0.10087853934188505,0.049305047810756564,0.005548160932700175,9.799998614393022
1727705162.064534,-4.3562313510514535e-07,4.74931540464198e-07,0.7322163581172828,-0.6810720996378045,-5.6730121359085206e-08,-1.198746693807244e-07,-0.08954716676646489,-0.10779963609555629,0.10172330334341938,9.799999704511498
1727705162.280501,-4.340510419782852e-07,4.743989401389446e-07,0.7330916487972792,-0.6801298658809751,-9.906616281487569e-08,-1.0633686684207711e-07,-0.08528267130606995,0.03949469786410202,-0.001121554838256785,9.799998982557838
1727705162.320024,-4.322510051580049e-07,4.734256440841268e-07,0.7337436578930613,-0.6794264084514963,-9.510101223495977e-08,-5.2025166726346976e-08,-0.04419666841757551,0.013331745157248396,-0.0015037855562731106,9.799999037406558
1727705162.358472,-4.3105221632446595e-07,4.7263457903297394e-07,0.7341792575941091,-0.6789556817040076,-9.226859852528133e-08,-4.887904327220621e-08,-0.04189685493000991,0.014753762068545614,-0.0011056406769419944,9.79999906504929
1727705162.6403456,-4.298937483896201e-07,4.7186165252541353e-07,0.734604220648864,-0.6784958651343923,-8.953782523745299e-08,-4.837001107122855e-08,-0.041722702490092634,0.02076044973505025,-0.0002546494353166093,9.799999091914064
1727705162.6473565,-4.285619445950594e-07,4.7072295481247447e-07,0.7348504803235307,-0.6782291438502704,-8.586092765928688e-08,-1.4614189076852006e-08,-0.01580796718481076,0.002427387938498146,-0.0008363708489821759,9.7999991303725
1727705162.6700304,-4.2765855325190807e-07,4.698398633400617e-07,0.7349951529743531,-0.6780723597845612,-8.337479580688555e-08,-1.1591531493103054e-08,-0.011308424095719811,-0.05314318532194568,-0.00864759008313901,9.799999157123874
1727705162.6984642,-4.26819420422606e-07,4.689491742412862e-07,0.7350952236865825,-0.6779638722769606,-8.078345011568181e-08,-6.6083496698622966e-09,-0.00966434588735081,0.003565133186579098,-0.00019292969013454825,9.799999179279958
1727705162.7822804,-4.25726169677104e-07,4.677831135519551e-07,0.735229602947594,-0.6778181400266026,-7.756472256168672e-08,-7.089063639332367e-09,-0.009936109429595275,0.005026118973167045,-2.8403042081643755e-05,9.799999212302108
1727705162.8125782,-4.2495428119819557e-07,4.669697092287052e-07,0.7353369482720832,-0.6777016840066881,-7.482815107093033e-08,-8.441067319878023e-09,-0.010983556364305319,0.00857162979512186,0.0017090845964606199,9.799999175702391
1727705163.0470266,-4.2418506913283927e-07,4.6617458858715743e-07,0.7354493732796429,-0.6775796774861117,-7.306005999818323e-08,-8.840396701078057e-09,-0.011069604041443568,0.005603402501231909,5.128418167095456e-06,9.79999925687588
1727705163.0492551,-4.2345690113257494e-07,4.653924901316562e-07,0.7355228051364635,-0.6774999654050117,-7.086197484602613e-08,-3.5474696448801415e-09,-0.006766869342422161,6.347716408783435e-05,-0.00043907613945822415,9.79999927873201
1727705163.0840323,-4.224442483808596e-07,4.6424550547811526e-07,0.735586967945786,-0.6774303009077254,-6.828472094134346e-08,2.1596838417658903e-10,-0.0037688509614352337,-0.00038268402306298403,-0.001754274062394611,9.799999373200729
1727705163.1125197,-4.2179821812147027e-07,4.634858732222888e-07,0.7356246892007766,-0.6773893390347002,-6.57473159499236e-08,2.6916453756845243e-10,-0.0037055579795553257,0.0018011608034480908,-2.3168640142534533e-06,9.79999932826339
1727705163.1496465,-4.211745667579224e-07,4.6279611857966116e-07,0.7357105786133261,-0.6772960538169799,-6.376630645017189e-08,-6.529729032778907e-09,-0.009019883912221473,0.008608638471280213,0.000956646940879677,9.799999329923335
1727705163.1934397,-4.20341038303101e-07,4.619281386803983e-07,0.7358258157049028,-0.6771708565360917,-5.286515187234626e-08,-5.58822036162731e-09,-0.0066646144334389845,-0.030003873269205304,0.018855646745467428,9.799999514914052
1727705163.4062781,-4.1974021046879954e-07,4.6126281505270724e-07,0.7358850489930232,-0.6771064869488009,-5.961750499786987e-08,-2.8125437672899494e-09,-0.0057324011991451785,0.0021454798921384686,-3.520334665699051e-05,9.79999938975555
1727705163.4396534,-4.1924710377225537e-07,4.606091224606382e-07,0.7358277320807832,-0.6771687741622933,-5.770974963974283e-08,1.2991411186444871e-08,0.006999642254976136,-0.01332453920006665,-0.0008481664362963376,9.799999388796435
1727705163.532179,-4.186156836623741e-07,4.5965426690650385e-07,0.735716605365163,-0.6772895072194565,-5.569312299444797e-08,1.588806649260673e-08,0.01108271415361473,-0.05695741089874356,-0.007554376206249118,9.799999436596305
1727705163.800896,-4.1819480327679186e-07,4.589298435289215e-07,0.7355909499903405,-0.6774259769834065,-5.3931662746540264e-08,2.0174784308398004e-08,0.01252040320977938,-0.0073666946231126735,-0.0001693523880440556,9.79999945119139
1727705163.803805,-4.176027656709143e-07,4.5840245213967333e-07,0.7359466604537969,-0.677039520978295,-4.813590817119273e-08,-5.200869138914423e-08,-0.047268513772755094,0.11243317937472282,0.02467035843680494,9.799998885127028
1727705163.8284464,-4.167649223925983e-07,4.581302253246383e-07,0.7364736249145446,-0.676466259176943,-5.1059699623980746e-08,-6.427086968118975e-08,-0.053832632100478534,0.04089304968573494,0.0017004937927635178,9.799999473948262
1727705163.8670228,-4.1562427516215594e-07,4.578283823928219e-07,0.7372063770502524,-0.6756676384407193,-4.9096493947200344e-08,-6.545100886890463e-08,-0.05422801691235899,0.02725615975881789,-0.000386729299211124,9.799999503333598
1727705163.9419231,-4.1478948746984813e-07,4.5761683216024464e-07,0.7377404144344456,-0.6750844990886036,-4.765460957635944e-08,-6.255724993561581e-08,-0.051680081963230456,0.018396255488025003,-0.001470154606041434,9.799999522066992
1727705163.9831152,-4.139855476288908e-07,4.5740672340208383e-07,0.7382818471181862,-0.6744923381443099,-4.6111435551762475e-08,-6.535670201696917e-08,-0.05746685332564791,0.10959839239575475,0.011418919804883486,9.799999528179258
1727705164.2119024,-4.1286214753508724e-07,4.572155807012916e-07,0.7390847041288866,-0.6736124999748272,-4.443156920309547e-08,-7.238230129285031e-08,-0.05976199858645771,0.030437537014063105,-0.0004129401258612046,9.799999550734649
1727705164.2171912,-4.119374975667766e-07,4.5718157881684033e-07,0.7399035168000614,-0.6727130040563528,-4.309845224340608e-08,-1.0179668467369042e-07,-0.08363487419269212,0.0603826531624429,0.0017773337404575595,9.799999555005618
1727705164.2289662,-4.1094228263198824e-07,4.5723334727513265e-07,0.7407520884625709,-0.6717784928367101,-4.1862938323421236e-08,-1.0339279934742089e-07,-0.08424723536896409,0.04294804415730104,-0.0008610075136058074,9.799999577454447
1727705164.2715855,-4.096322121007554e-07,4.573238795568198e-07,0.7418831829334203,-0.6705291514022341,-4.023275088653356e-08,-1.0332181626200823e-07,-0.08426664567558037,0.04227860155617799,-0.0009618974576035383,9.799999594494107
1727705164.3091445,-4.01781364208711e-07,4.497362576063156e-07,0.7426962992234423,-0.6696284097314268,-7.191103825734923e-07,-9.598500189651584e-08,-0.07923850162209403,0.014339243200278424,-1.9274445570004728,9.800002066591484
1727705164.3319566,-3.942050278241238e-07,4.423368944145308e-07,0.7434594068482113,-0.6687810631055237,-6.976735250231949e-07,-8.805661567478383e-08,-0.07443779099731888,0.008651535442613817,-1.9269449632383542,9.800002032927626
1727705164.3662462,-3.868922576970134e-07,4.351231263714843e-07,0.7441749426617703,-0.6679847713189366,-6.768732619663154e-07,-8.070026214461674e-08,-0.06986043201094834,0.0035909075198667473,-1.9264661568116352,9.800002000291428
1727705164.6320992,-3.7753371858747824e-07,4.257885252546075e-07,0.7450590787993985,-0.6669984775831708,-6.500963292158516e-07,-7.172414070418429e-08,-0.06409683913444666,-0.002254460677674731,-1.9258579925668158,9.800001958348073
1727705164.6639109,-3.7079570926410155e-07,4.189965744368923e-07,0.7456727184192403,-0.6663123869514563,-6.307075032578546e-07,-6.55751625595477e-08,-0.06002234449039337,-0.00601523742318274,-1.925423053187795,9.800001928009761
1727705164.6945086,-3.6428787031840883e-07,4.123803917323058e-07,0.7462464241489725,-0.665669793850201,-6.118961942373045e-07,-5.989137487873463e-08,-0.05615463804534614,-0.009285972528976581,-1.925005048338032,9.800001898577065
1727705164.9501307,-3.6894995336985473e-07,4.184526669548052e-07,0.7469513075074667,-0.6648787439921467,7.036105730275878e-07,-5.5712853791977037e-08,-0.051078919753643204,-0.008989857572039003,1.7275779268986389,9.799997602986542
1727705164.96525,-3.755299433685922e-07,4.2644639809023793e-07,0.7474368673769893,-0.6643328452555617,6.826700524049451e-07,-5.2904070121213496e-08,-0.047552725924583365,-0.005571116185091531,1.7276960687503158,9.799997581025467
1727705164.997062,-3.8191441035281386e-07,4.3420145580669914e-07,0.7478887836013599,-0.6638240484969973,6.623507755474764e-07,-5.0221238515380585e-08,-0.044304771694854216,-0.0025818069806591696,1.7277851773162507,9.799997559768713
1727705165.0756063,-3.901335086228424e-07,4.4418196510806185e-07,0.7484436025092496,-0.6631984422950847,6.361911559840142e-07,-4.683648339878743e-08,-0.04036506953609272,0.0008196102432538708,1.7278647444880215,9.799997532432371
1727705165.1116045,-3.954561103884046e-07,4.50697870800871e-07,0.7487991164909228,-0.6627970150370729,4.2777490669552187e-07,-3.970241351802945e-08,-0.029251796184358348,-0.1150844234169581,1.1865072573025008,9.79999441746463
1727705165.1440494,-3.9638844078405994e-07,4.5189886452634614e-07,0.7488361153649482,-0.6627552129744229,-1.1758223593606586e-09,2.9445142525898586e-09,0.0015344381367618622,-0.03891442697056961,0.029975963409340296,9.79999813843204
1727705165.3672924,-4.004152333084476e-07,4.563621449365008e-07,0.7488131335328042,-0.6627811788580106,6.04131803494679e-07,5.1545529740554225e-09,0.002305330860346691,0.0005482318958066357,1.7298441554686013,9.79999750757383
1727705165.376566,-4.019103574752477e-07,4.5764888305268513e-07,0.748504947749475,-0.6631292055053712,-2.7469630560291703e-08,3.7136089489208644e-08,0.027762914691547,-0.022939597600816965,0.005325776371471997,9.799999436422906
1727705165.402523,-4.0250009204615125e-07,4.5786512091965945e-07,0.7482484117768872,-0.6634186568623122,-2.760972622231708e-08,3.490985225445195e-08,0.02554759173977507,-0.009764646484905718,0.009803105838783311,9.7999993185625
1727705165.440837,-4.0281925181183813e-07,4.5777901757219764e-07,0.7479710038674342,-0.6637314045403991,-1.6212785675328197e-08,3.906126222706523e-08,0.029480395264616117,-0.025003785810738532,0.03989704572684253,9.799997886200993
1727705165.4772809,-4.0274481437479033e-07,4.570404364041481e-07,0.747575540502704,-0.6641767921583219,-3.0165048333139734e-08,3.991019400188659e-08,0.02981077211992974,-0.01359528293958783,-8.965960858784406e-05,9.79999976943857
1727705165.509623,-4.03836341417023e-07,4.5780302614726414e-07,0.7473030269629102,-0.6644833977547515,-2.667460557120976e-08,3.6534229676787985e-08,0.027051037750010647,-0.010361448140653708,0.017055355047735855,9.799999018222195
1727705165.7683115,-4.057874064032061e-07,4.5957630354250536e-07,0.7470856890921127,-0.6647277436314712,7.308291857057713e-08,2.6733059815041397e-08,0.016766603943407184,0.05805123462156911,0.3145412740652219,9.799991307577685
1727705165.852652,-4.053220251419057e-07,4.586824001450381e-07,0.7468809907387555,-0.6649577322452309,-1.0075143506235204e-07,2.1812214225876455e-08,0.016205817251272212,-0.025250121300622565,-0.17960748098804583,9.799998745734829
1727705165.8862956,-4.0507709919660025e-07,4.581183400524463e-07,0.7467150131135504,-0.6651441115957174,-3.52006635118153e-08,2.311400799901139e-08,0.016689707877644816,-0.00837921883486052,-0.0005701220769083406,9.799999822445097
1727705166.1556058,-4.054145432907752e-07,4.5819107325927253e-07,0.7465197004525763,-0.665363311909983,-1.557541454381505e-08,2.8439740693186457e-08,0.021536410983542746,-0.024575252544015866,0.0527656096948201,9.799997337883072
1727705166.164291,-4.055148490672441e-07,4.579410094228365e-07,0.7463047689843368,-0.6656043808380931,4.3057017651990034e-08,2.8886370481099636e-08,0.0208547219147862,0.004390999212847271,0.2170603002187512,9.800001069898142
1727705166.2042503,-4.0532433700868594e-07,4.57269575792629e-07,0.7460320108592081,-0.6659100830990569,-3.401886793138108e-08,2.7608096838170702e-08,0.020447956476782117,-0.009862289204941385,6.213326351566771e-05,9.799999815630946
1727705166.2351182,-4.057305300917113e-07,4.573639246286927e-07,0.7457889385175559,-0.6661823017646771,-1.3526138172865563e-08,3.479130710866768e-08,0.026982522431558024,-0.03238022223889239,0.055308686949671365,9.79999721026565
1727705166.3187852,-4.0561860770901023e-07,4.568012019736082e-07,0.7455144593537169,-0.666489452950429,-3.363960521199688e-08,3.63566647941146e-08,0.02751864419345887,-0.01393102221728688,2.3354713291376692e-05,9.79999982337916
1727705166.3600104,-4.052256403383116e-07,4.5567247761416987e-07,0.7450288778268446,-0.6670322115188297,-3.297317605237714e-08,5.2404826115519746e-08,0.040789164510448304,-0.03017865052907099,-0.006009420508590594,9.800000036586626
1727705166.5634696,-4.0474311980962177e-07,4.5441658544884103e-07,0.7444717366254104,-0.6676539772708427,-4.8767714684626164e-08,8.031578173431514e-08,0.06567359891377636,-0.10451349301617997,-0.0659751557631117,9.800002346693766
1727705166.5753987,-4.048902724687216e-07,4.5357683474234054e-07,0.7438020840333114,-0.6683999250354035,-4.529041217055898e-08,8.522631099897524e-08,0.06572979968286731,-0.006746037929063193,-0.04562057031007864,9.799999566755359
1727705166.616374,-4.051663569169116e-07,4.5258252131943156e-07,0.7429314324043568,-0.6693675274057158,-2.6475815615532833e-08,8.278427154273897e-08,0.0650180940887195,-0.031244840493410725,-0.0005208489512249514,9.799999853581692
1727705166.8831594,-4.040941777301207e-07,4.504083864710374e-07,0.7422503054856504,-0.6701227380160237,-7.063716216882043e-08,8.753957411941099e-08,0.06970430186367536,-0.04705091893796002,-0.13677223207413486,9.800005908897164
1727705166.8873746,-4.0369806380852356e-07,4.488998263194859e-07,0.7414991575492655,-0.6709537982256044,-2.2632978870819986e-08,9.455334656509804e-08,0.07527577806432077,-0.03940832291688488,-0.01163238524957455,9.800000326265618
1727705166.91659,-4.0405609194021715e-07,4.481942531913208e-07,0.7407400009894034,-0.6717918211275383,-1.8318007771715967e-08,9.475578537974948e-08,0.07539633940176915,-0.03521206714382975,-0.0007589780952775746,9.799999866013918
1727705166.958915,-4.045346453273977e-07,4.472574633450746e-07,0.7397397849618007,-0.6728930453974874,-1.9982973939230163e-08,9.23256861180345e-08,0.0713356540532779,0.021750395351525773,0.0005296211658729214,9.799999826632403
1727705166.9867604,-4.0486669467467e-07,4.4660026987366685e-07,0.7390331877238555,-0.6736690192092502,-1.708840720978648e-08,8.750613884140752e-08,0.06980218193907918,-0.03132919267205013,-0.00045190477253698684,9.799999873905483
1727705167.0327675,-4.047230108291873e-07,4.4544332363911117e-07,0.738343675525675,-0.6744246561409764,-3.276370443405485e-08,8.428744608778756e-08,0.06711639263660478,-0.023281094117603335,-0.04768429842021164,9.800002048749901
1727705167.2963414,-4.02483112527926e-07,4.4173147483193196e-07,0.7374817364392509,-0.6753670767946791,-2.3091139695749327e-07,7.57234113165452e-08,0.06012286876869419,-0.00984463034780209,-0.6133247895064041,9.800007609676241
1727705167.3002577,-4.027188172059347e-07,4.4113894172093554e-07,0.7368768202623804,-0.6760270347845909,-6.7330485956562095e-09,7.371798871396393e-08,0.05963097380828563,-0.025804054754516997,-0.002107939712112242,9.799999961267451
1727705167.3281631,-4.0326223762828514e-07,4.4088536782661374e-07,0.7362673909169121,-0.6766907189196893,3.8269028575948165e-10,7.444450169673102e-08,0.06037432734575836,-0.02876972026447162,0.018035780613973606,9.799999040800449
1727705167.368721,-3.990723642600512e-07,4.351945412923466e-07,0.7354624031915141,-0.677565534462471,-6.929821253040861e-07,7.24165640847047e-08,0.057805212130959266,-0.009307685556614539,-1.9208214264488894,9.80000229603254
1727705167.4364922,-3.925622232602404e-07,4.273382719509314e-07,0.7349004309756664,-0.6781750191148617,-6.723482544073713e-07,6.631631384186489e-08,0.05402062551725181,-0.005298891346772292,-1.92067184614447,9.800002256414661
1727705167.4698052,-3.862171050238075e-07,4.197421013844441e-07,0.7343752370663824,-0.6787437006583332,-6.523264320590447e-07,6.066385222502489e-08,0.05041963481309343,-0.0017751156235297889,-1.9205300330330728,9.800002217478092
1727705167.6985288,-3.845030803566444e-07,4.1723665883734426e-07,0.7338847648902584,-0.67927398880102,6.846425255577055e-07,5.412587646218335e-08,0.047088779402313256,0.004654644294847503,1.7317991991038528,9.800024039135543
1727705167.7089338,-3.9396679838743806e-07,4.2667150866990085e-07,0.7332778769755102,-0.6799290809620891,6.576309716380196e-07,5.099155032078267e-08,0.04323985830485023,0.001013339907762995,1.7314838586906467,9.799997761104246
1727705167.7386718,-3.996460814515502e-07,4.322412896149062e-07,0.7328062395705311,-0.6804373705537864,2.937969210480603e-07,5.651662856233942e-08,0.05487066428602313,-0.20193197187618867,0.7494267893647637,9.799992090256563
1727705168.0221145,-3.9852600123272003e-07,4.3025275530566594e-07,0.7321791144916983,-0.6811121378318026,-5.103211923245206e-07,7.585469544558617e-08,0.06601220752436827,-0.11399812234920915,-1.4566487513398942,9.799991229323973
1727705168.0282578,-3.973843234857089e-07,4.274050654555514e-07,0.7307778937248385,-0.6826153162966296,-1.605589128886983e-09,1.3298785237331317e-07,0.11227258015129571,-0.06316190490157095,-0.0698963534961678,9.800002835866307
1727705168.060454,-3.983450430867015e-07,4.269210940183113e-07,0.7296211368310924,-0.6838515896661814,2.1363809168525067e-08,1.3490209095690237e-07,0.11294208805785455,-0.039475195950579633,-0.001935868817948881,9.799999921602057
1727705168.0890634,-3.990536159857936e-07,4.261659136429805e-07,0.7284506193316125,-0.6850983106058934,-5.488245143183148e-08,1.3661883023661403e-07,0.11611060740046814,-0.0835272947033686,-0.21761656681591846,9.799998671802191
1727705168.1340723,-4.0033593574688016e-07,4.2544899643699764e-07,0.7268425974130526,-0.6868040758364103,2.08451484663453e-08,1.3999937293285375e-07,0.11732034913782682,-0.040424860547714436,-0.0019336180735609156,9.799999923028778
1727705168.1850436,-4.015394778414828e-07,4.252071241180166e-07,0.7256927133931552,-0.6880189573897928,2.072149330614693e-08,1.3255419998454943e-07,0.1108266740044788,-0.033100138312162804,0.0024863063701394458,9.799999767606927
1727705168.4458325,-4.0286816967955255e-07,4.251283349459155e-07,0.7246166314834651,-0.6891521873847699,1.3333803741886213e-07,1.2194899689935564e-07,0.09113009813381441,0.23626888771018767,0.35370319429830077,9.800001789219989
1727705168.4505897,-4.0368433207705963e-07,4.248330744337214e-07,0.7237421672440285,-0.6900704857857444,1.7122349864215697e-08,1.0017296288095107e-07,0.0837513199719814,-0.023449242596557545,0.000829285381605673,9.799999882299199
1727705168.480814,-4.049365892910402e-07,4.2467863097250147e-07,0.7225929337122594,-0.6912737895716614,2.6012362377840074e-08,9.877844530100603e-08,0.08267431506275391,-0.02618877927480874,0.029035350510761337,9.799998598104143
1727705168.513951,-4.053796431140539e-07,4.240536356459906e-07,0.7217396591670528,-0.6921646223154446,-6.047973419456471e-08,9.806531851495278e-08,0.08149123906912148,-0.013790197926208107,-0.20735128970887526,9.799998686626155
1727705168.5982628,-4.0602742041255005e-07,4.2366282987127224e-07,0.7208969171920926,-0.6930423037467429,1.4974313421654046e-08,9.664306283424466e-08,0.08107389206315847,-0.027950158592698643,-0.001387562856998163,9.799999958937656
1727705168.635887,-4.0714191377074274e-07,4.2342186838538926e-07,0.719803566240254,-0.6941778057727481,2.1641961747428818e-08,9.131650160315038e-08,0.07601579224693716,-0.011590319134999022,0.022487192909679432,9.799998980401892
1727705168.8639646,-4.075562205479878e-07,4.2286077804730836e-07,0.7190242508712639,-0.6949849830454415,-5.1660069893369216e-08,8.883485325221827e-08,0.0730638973044529,0.009060152242415728,-0.17642568073428597,9.799998859110277
1727705168.8670049,-4.081351503223101e-07,4.2251600151464705e-07,0.718271136931194,-0.6957633030357557,1.3643479826926368e-08,8.58124174045657e-08,0.07209967667744778,-0.02438033697733979,-0.0010635757072304155,9.799999961465623
1727705168.9041562,-4.089450317593765e-07,4.2210426268409923e-07,0.717267371232502,-0.6967980469008728,1.3281658394496453e-08,8.574594348680824e-08,0.07207861640023597,-0.025118091285057154,-0.0006680738748258722,9.79999994154606
1727705169.1913288,-4.0770819390390263e-07,4.198916773705615e-07,0.7165447942898149,-0.6975410796331815,-5.157023587154763e-07,8.163336049903303e-08,0.06313166359257734,0.09803107826140298,-1.4486688573256807,9.799991227779772
1727705169.1958568,-4.0768327195392646e-07,4.191469503301951e-07,0.7160055234174714,-0.6980946142431776,1.7526992786498192e-08,5.933102737857331e-08,0.05011011156815089,-0.006199395032567037,-0.0034829628050422157,9.800000148754348
1727705169.2122676,-4.081951184691529e-07,4.1903949362315503e-07,0.7154832643368353,-0.6986298722882982,1.863461054872532e-08,5.850146628247666e-08,0.04982528575199739,-0.016204981249774205,-0.0002908728177056462,9.799999945395946
1727705169.2700322,-4.08718488371071e-07,4.187555924089378e-07,0.7148192904907513,-0.6993092176869661,4.299189078039803e-09,5.506374153873235e-08,0.045681706439767364,0.015200115162200947,-0.03444182977648243,9.799999725533073
1727705169.3074849,-4.091829548542484e-07,4.1866109947325555e-07,0.714347766458583,-0.6997908748728371,1.7729843034974854e-08,5.2575265265395924e-08,0.04484711340069794,-0.014085849920314164,-0.00026010262417826556,9.799999953035657
1727705169.3420408,-4.087987682834856e-07,4.1770367568606633e-07,0.7138809275709337,-0.7002671070742374,-2.2544063194660956e-07,5.221710842604977e-08,0.04371294674301382,8.020892995617614e-05,-0.6708364410543719,9.799995950283405
1727705169.6142402,-4.072680930087669e-07,4.154136888234419e-07,0.713295059779542,-0.7008638653074939,-5.600928791930952e-07,4.806694294384332e-08,0.037231678919215194,0.0691519086541448,-1.5946889085725333,9.799990403585715
1727705169.6163933,-4.0735139759293925e-07,4.150684945704933e-07,0.7129433715121185,-0.7012216119149459,2.3537324280687116e-08,3.815625862391666e-08,0.03299401273460414,-0.006660232747378772,-0.005026320961539808,9.800000192139807
1727705169.6370492,-4.07702679981053e-07,4.1501812891591875e-07,0.7125855573407627,-0.7015852218148669,2.0968786025684522e-08,3.98365678545102e-08,0.03474892593558818,-0.015906004542069283,-0.012160066785539603,9.80000046104338
1727705169.6821156,-4.083277710514092e-07,4.150836316695378e-07,0.7120958570286422,-0.702082253302492,2.40924433439473e-08,4.032805974466475e-08,0.03490092621911457,-0.010531424813084158,-0.00015447597668430852,9.799999954974755
1727705169.7490695,-4.0879015444893585e-07,4.151246324274947e-07,0.7117282012165642,-0.7024549576967155,2.3380350034349536e-08,4.036536816969027e-08,0.03490182119581106,-0.010499854920601858,-0.0001453598197592248,9.799999956091957
1727705169.7919557,-4.080562338743067e-07,4.139481487866702e-07,0.7113809014700005,-0.7028066683116997,-3.165591978724432e-07,3.7763711843784884e-08,0.02905328589112762,0.0703600827468174,-0.9293205809182423,9.799994355838828
1727705169.9953794,-4.0830231091914175e-07,4.1386112074301324e-07,0.7110952514829378,-0.7030956857484472,2.490685637400561e-08,3.0785328590005074e-08,0.02685720194522981,-0.006078860712973762,-0.0024612442116397765,9.800000075461979
1727705170.000242,-3.992642790418765e-07,4.042943822513998e-07,0.7107396075195523,-0.7034551942395689,-6.479449685262216e-07,2.827674335019456e-08,0.02436323039562509,0.0006986140494363742,-1.9209623765444541,9.800002276727872
1727705170.0316205,-3.9270569530146895e-07,3.9738318018786907e-07,0.7104949260307338,-0.7037023234893216,-6.286401154782312e-07,2.5675085643597313e-08,0.022605658944759483,0.002038153898211215,-1.9208309653081537,9.800002237210784
1727705170.3000147,-3.863306329166183e-07,3.906896297080541e-07,0.7102680547039547,-0.7039313109009699,-6.099076961602495e-07,2.3277012557869267e-08,0.020941862831987214,0.0031713204614986497,-1.9206999352670648,9.800002198882307
1727705170.311901,-3.781082876005803e-07,3.820907105693696e-07,0.7099916208786371,-0.7042101236717891,-5.85793928507769e-07,2.0374309553505323e-08,0.018864442463311256,0.004390645232662793,-1.9205253254374661,9.800002149524191
1727705170.3357627,-3.76689069710484e-07,3.8052717819948077e-07,0.7099285832691538,-0.7042736731251321,9.442766459103937e-08,1.6502174675776862e-09,0.0010168584148978993,0.03703153898505147,-0.06123174783023827,9.800002917935494
1727705170.3666718,-3.7789386504124404e-07,3.8176101981584757e-07,0.7099272375849345,-0.7042750296118238,1.1504286745405814e-07,-1.1267413144927387e-09,2.1725448087596775e-05,0.0007918327412927913,-6.160304516305002e-05,9.799999954663608
1727705170.4115455,-3.794586772966457e-07,3.8337115352696384e-07,0.7099272083735195,-0.7042750590576741,1.1057257460938202e-07,-1.1406241919350583e-09,1.288627216965235e-07,4.709336600873222e-06,1.1204033038970715e-05,9.799999948804174
1727705170.489434,-3.80591670132289e-07,3.8453705377248254e-07,0.70992720820294,-0.7042750592296212,1.0728873969799235e-07,-1.107097053325741e-09,2.7542867433616707e-09,1.12965568356039e-07,1.064566559205354e-05,9.799999950328939
1727705170.7332861,-3.8169101468538613e-07,3.8566832913744466e-07,0.7099272081992939,-0.7042750592332955,1.0410252308154204e-07,-1.0742405631776838e-09,5.884190305638103e-11,1.5027494727956478e-08,1.066181888419274e-05,9.799999951796176
1727705170.7407556,-3.892822531560003e-07,3.93355986199629e-07,0.7099263139145051,-0.7042759606940004,7.130287551206626e-07,-1.5565377371106713e-09,0.00012597433709920738,0.0008037242954528406,1.7309065254122793,9.799997915136267
1727705170.7658017,-3.990547414766982e-07,4.0325017374077786e-07,0.7099231617379893,-0.7042791381459591,6.848578565438366e-07,-1.3079670164202348e-09,0.0002806853911947771,0.000834905695069218,1.7307030485277362,9.799997873891234
1727705170.7975545,-4.0287433789345423e-07,4.0702994532876496e-07,0.7096741302826489,-0.7045300765810056,2.356578993218938e-07,3.466127540885867e-08,0.04175800027390343,-0.26587047122723045,0.49139361932676723,9.799998361464406
1727705170.8837028,-4.053195662632902e-07,4.089235341952653e-07,0.7091368293386918,-0.7050708881205743,4.5849206225540616e-08,5.936254184057504e-08,0.05189816811299436,-0.01620518735975536,0.02196179286553681,9.799998916287553
1727705170.9324443,-4.079790992099088e-07,4.1074482146767675e-07,0.7084211008386216,-0.7057900140171014,5.224953826895481e-07,5.687811701799817e-08,0.046644765365661575,0.06996020173798982,1.3592721714806548,9.800007998306336
1727705171.1606221,-4.088550864127658e-07,4.1106416767912895e-07,0.7079467014463555,-0.7062658620596699,3.055853394169547e-08,5.169874889404141e-08,0.04457455757204679,-0.006180013497332454,0.003759011330276052,9.799999801080693
1727705171.1635017,-4.159697613097973e-07,4.1766515007704404e-07,0.7074945360119415,-0.706718813611821,6.400788625598688e-07,4.8937572665583436e-08,0.041740513211919496,0.0059953118581630785,1.731827433192948,9.799997808680416
1727705171.1874366,-4.1866424567486764e-07,4.1955608242076527e-07,0.7067656114749484,-0.7074477863673692,2.4818046245816355e-08,6.442781357307074e-08,0.054608151425365986,-0.027373288447359072,0.05726605542873787,9.799997296516022
1727705171.4718053,-4.190569275871626e-07,4.192504735557613e-07,0.7061822194241332,-0.7080301356360856,3.0323937498707353e-09,6.56094133913386e-08,0.05499469368095272,-0.01375549874339323,-0.000267449070931923,9.799999972247182
1727705171.4767487,-4.235780711151162e-07,4.2308091962901233e-07,0.7056447040628339,-0.7085658414203418,1.9238695153372258e-07,5.9060912978860503e-08,0.04665521274065939,0.05192038025465103,0.5612469207214369,9.799995967398393
1727705171.4876642,-4.2389018933040443e-07,4.2280594134018305e-07,0.7051653727659617,-0.7090428739162983,-8.500181668851859e-09,5.411636200960982e-08,0.04489619905366643,-0.011130157293924588,0.0014970070824098874,9.799999912510263
1727705171.5275888,-4.2414710962330777e-07,4.2229601878094624e-07,0.7045289186864399,-0.7096752797823506,-8.708241229415216e-09,5.397425535006708e-08,0.04485772898321927,-0.012492510565330534,-0.0002497605836318821,9.799999983673668
1727705171.558305,-4.255742958822117e-07,4.231412979609989e-07,0.7040518378748727,-0.7101485827519858,3.178343201577809e-08,5.3977014406720596e-08,0.044761860652078295,-0.012372221396096162,0.11981188132872805,9.799994576306487
1727705171.598469,-4.262119370542731e-07,4.2319962225111884e-07,0.7035840051283736,-0.7106120937101732,1.1557185697251085e-07,5.247993210572833e-08,0.04220653564735055,0.02315523540856067,0.35739032788935016,9.800002050860705
1727705171.854214,-4.2645794326404396e-07,4.2273461333251764e-07,0.702996553616487,-0.7111932547507611,-1.2612956505272659e-08,4.9727848578747634e-08,0.04122892833743172,-0.011860322078991174,-3.907615536925212e-05,9.799999979805223
1727705171.857168,-4.1926245035169857e-07,4.150994103248516e-07,0.7025767714182748,-0.7116079540471179,-6.919298971483456e-07,4.692242428474118e-08,0.0384096116701249,0.0006564287840355699,-1.9206212453268585,9.800002388227787
1727705171.8678486,-4.122606568677896e-07,4.077120721218196e-07,0.7021858256404985,-0.7119937262850251,-6.713203128932388e-07,4.2742792197056975e-08,0.03573447752150591,0.0028429857978150316,-1.9204941193590164,9.800002345397269
1727705171.9105024,-4.032192834706196e-07,3.9823257547239007e-07,0.7017068932451508,-0.7124657437181926,-6.447885501265085e-07,3.7670355366398894e-08,0.032385158340690584,0.005268537153335555,-1.9203285750727368,9.800002290276682
1727705171.970314,-3.967093087787188e-07,3.914439980723655e-07,0.7013800605454463,-0.7127874933449347,-6.100221802843918e-07,3.387581937771706e-08,0.02933954442774372,0.01649425896668092,-1.8757535962374474,9.800002508749577
1727705172.0108175,-3.9514641377127294e-07,3.8975930170265695e-07,0.7014972222337149,-0.7126721877540009,-9.203702013412491e-08,-2.2920164387213917e-08,-0.03344370835125113,0.32333577893002885,-0.42534171512333546,9.800001509967782
1727705172.0336323,-3.937879935589387e-07,3.890365969747808e-07,0.7022852212283132,-0.7118956862097091,-9.031571879186529e-08,-9.158007600870481e-08,-0.09237095370828771,0.25990979013179244,-0.43904911722157136,9.800000488878105
1727705172.2376957,-3.9292244078541735e-07,3.9010850111526954e-07,0.7043640944247852,-0.7098388707902982,-4.701558887652645e-08,-1.8761742574025556e-07,-0.1785097308138966,0.25849340227778056,-0.32490302764032347,9.799997845465343
1727705172.250938,-3.9244520780810583e-07,3.9183877694173414e-07,0.7063750846786543,-0.7078377213351351,7.993754560034224e-08,-2.126617668077702e-07,-0.1903964831946093,0.010187826360812596,-0.006987502246887827,9.800000119460941
1727705172.2824674,-3.921445397714127e-07,3.938243431794798e-07,0.7083961508325394,-0.7058150561480911,7.86982230674618e-08,-2.1378097226653642e-07,-0.1906503657022078,0.0009239322235884089,-0.005058867788889806,9.799999977895938
1727705172.558741,-3.9156757574920424e-07,3.9653859069483123e-07,0.7115652532120098,-0.7026200185171338,7.462160443618575e-08,-2.759809715541335e-07,-0.258814269998455,0.3117904030325328,0.02833949512020027,9.799999940165792
1727705172.5641165,-3.906587684078335e-07,3.989700714890162e-07,0.7147478205325586,-0.6993822653196501,7.244546142443897e-08,-3.5049257793751575e-07,-0.32459469721481565,0.3090221331574989,0.01897829735438776,9.799999952227303
1727705172.592939,-3.894505835580651e-07,4.018141216979258e-07,0.7183477984830519,-0.6956841527692287,7.476073976576852e-08,-3.900023154673537e-07,-0.3475229756275595,0.03427414601042616,-0.010551826786782159,9.799999940445431
1727705172.6332176,-3.876004845654532e-07,4.05598188122121e-07,0.7231828124275429,-0.6906566584121769,7.117922020414493e-08,-3.940002892948055e-07,-0.3489555651780183,0.0031679277452825983,-0.0169288110043144,9.799999993892538
1727705172.675181,-3.8615511511768477e-07,4.0838539231678845e-07,0.726863585897831,-0.6867818631089717,6.501700327688422e-08,-4.049772214268476e-07,-0.37091088907514375,0.3097689802522366,0.011495799855991905,9.79999991028059
1727705172.706275,-3.8438451448097577e-07,4.113576994930328e-07,0.7311222423835231,-0.6822464852908894,6.316898363921951e-08,-4.80054512512576e-07,-0.4366846723981357,0.31063786503265867,-0.0008907408222517842,9.799999977668124
1727705172.9259853,-3.8227606848005464e-07,4.147263820951839e-07,0.7359119733370348,-0.6770772241767353,6.11545347263343e-08,-5.433125561056243e-07,-0.49173631868266726,0.311673286348397,-0.012843065518514064,9.799999991887326
1727705172.931981,-3.78919948742552e-07,4.197699951326034e-07,0.7430043459352019,-0.6692865917684913,6.946378010113428e-08,-6.061055836373951e-07,-0.5342519935322063,0.034249321049700944,-0.0323738263525617,9.799999931680599
1727705172.9636018,-3.7616307064097526e-07,4.2357480243425243e-07,0.7483544143037069,-0.6632990808012891,6.620557396600085e-08,-6.097705612216425e-07,-0.5354908782853791,0.0073891644091022765,-0.03985386903021208,9.80000002178295
1727705173.0356355,-3.733454783683238e-07,4.2734182477194264e-07,0.7536586985830102,-0.6572659781624492,6.419364902027233e-08,-6.10877019095662e-07,-0.5355653797208474,0.005771647972203437,-0.040135527572686465,9.800000023985216
1727705173.0829368,-3.6947970242725975e-07,4.322577310372374e-07,0.7607267109277445,-0.6490723159099706,5.174551506077798e-08,-6.22637448312901e-07,-0.5574924429481823,0.31323568321183043,-0.029011746175843196,9.79999984337386
1727705173.1104317,-3.663174226725535e-07,4.362125639424617e-07,0.7664909044498859,-0.64225516221769,6.649548062925028e-08,-6.89544706567236e-07,-0.6069127782610129,0.11552529292890061,-0.025689727443531388,9.799999759845836
1727705173.294309,-3.627460720668673e-07,4.4020969483660597e-07,0.7725436777612896,-0.6349616255733375,4.8338088172471466e-08,-7.348535127122591e-07,-0.6537862054428247,0.3153325593096605,-0.056416685832192205,9.80000004609349
1727705173.3312433,-3.5750502749532855e-07,4.4623519816205683e-07,0.7813571808007654,-0.6240840937011238,7.461279240316613e-08,-8.188841042639737e-07,-0.7159231708335885,0.08179599793698393,-0.031511034293536556,9.799999343720925
1727705173.361126,-3.532148839817765e-07,4.5083114907981396e-07,0.7880384290512985,-0.6156260507305013,6.214575666650285e-08,-8.270152990292423e-07,-0.719045537235774,0.014517784511115826,-0.07135884820647954,9.800000052538637
1727705173.5975554,-3.4868400395562425e-07,4.5524438579581145e-07,0.7948330666991392,-0.6068281437782139,4.2347354083421194e-08,-8.643994825017105e-07,-0.7630017788965556,0.31832182518050134,-0.09285031874732286,9.800000090203664
1727705173.6180992,-3.4366643890494735e-07,4.5986559245163696e-07,0.8021170302490919,-0.597166869295382,5.2583152045616586e-08,-9.40717894895094e-07,-0.8281635531805955,0.3107402578870751,-0.0872314142477537,9.800000306482781
1727705173.6603148,-3.368093184226367e-07,4.670162163867755e-07,0.8121258034585286,-0.5834823727898794,6.439009019437195e-08,-9.832200973573917e-07,-0.8508189752937564,0.02606777929722108,-0.0969242646321742,9.800000030496074
1727705173.6899734,-3.3310867913434204e-07,4.7464714553641855e-07,0.8194880770799241,-0.5730962323410546,6.944434331473273e-07,-9.826716556083318e-07,-0.8437561121724602,-0.10481295337120194,1.6404117335403599,9.800010571025075
1727705173.7315273,-3.3280298436234803e-07,4.872472215001724e-07,0.826551086684177,-0.5628617069057531,6.736418070156882e-07,-9.76841876747049e-07,-0.8217305440374209,-0.0576476984362257,1.6499499706740177,9.799997911110562
1727705173.7730906,-3.3192948154456045e-07,5.03623283629126e-07,0.8354951124938206,-0.5494978771556577,6.467665260328647e-07,-9.68042148884901e-07,-0.793599505856418,0.001619432167073718,1.6617261940248234,9.799997859351711
1727705174.0194714,-3.2939487489638237e-07,5.130772450053756e-07,0.8417477823459312,-0.5398709761742477,3.409560968665154e-07,-9.324575828498311e-07,-0.7467629887761185,-0.1199853466684279,0.8542090519071255,9.799998202799085
1727705174.023658,-3.2532628993223827e-07,5.194215507070382e-07,0.8473825540742896,-0.5309828688857652,1.8516878536034422e-07,-8.571278589636663e-07,-0.677589967381524,-0.19769445551931986,0.45671217149292487,9.799999297388734
1727705174.0591605,-3.198753895643952e-07,5.260284949886122e-07,0.853904417898051,-0.5204298656820256,1.8642024459541682e-08,-7.486738904132065e-07,-0.5933880966932314,-0.029279413018237152,0.06691931838135139,9.799996890661276
1727705174.1460927,-3.146729272251462e-07,5.282159372228096e-07,0.8584279455971426,-0.5129341694774203,-1.1063630892337542e-07,-7.25753188942188e-07,-0.5788889382300335,0.05553341250883341,-0.2751773486070685,9.799998822300672
1727705174.177045,-3.0964934244361537e-07,5.304299637562469e-07,0.8628053762661505,-0.5055362328120996,-4.234460162350117e-08,-7.116146474431246e-07,-0.5702345384598385,0.08816404927701088,-0.08305798767204349,9.800000105283315
1727705174.2114813,-3.053636863043136e-07,5.336828239854742e-07,0.8670084674976556,-0.49829340481987977,1.5578801966532332e-08,-6.896991537776551e-07,-0.5510743306482633,0.051851858077917194,0.08017064382222341,9.799997111367059
1727705174.3989239,-2.956171656867974e-07,5.303844998510484e-07,0.872357173221522,-0.4888690646058379,-7.287726462963331e-07,-6.631969864756977e-07,-0.5348507332128477,0.05078557983573104,-1.9999336015883316,9.800002570704152
1727705174.4120245,-2.8707657794037436e-07,5.250565140340745e-07,0.8761194936806951,-0.482094008251839,-4.1903970413522273e-07,-6.178035475824713e-07,-0.5002189358306491,-0.19297069938414832,-1.2197662140456558,9.800005463801785
1727705174.4680088,-2.8113115389201874e-07,5.232285173690236e-07,0.8793745390864974,-0.4761306753466504,-2.41725419066703e-07,-5.274458523685984e-07,-0.4266038558550863,-0.31784747529173174,-0.7557054177533372,9.800001561006518
1727705174.7397108,-2.7494696319455156e-07,5.2147737553915e-07,0.882764531366367,-0.46981568956471753,-2.201182913760528e-07,-3.9259538251203897e-07,-0.3172982005517021,-0.3503362505063536,-0.7033599835079788,9.80000086465295
1727705174.7547219,-2.7108946264354856e-07,5.196957183511118e-07,0.8846164866010091,-0.4663192807866119,-2.2756807807413082e-07,-2.9458600496583446e-07,-0.23756305946740047,-0.34566113088117484,-0.7298930350136111,9.800000886230535
1727705174.7840617,-2.6793055822843875e-07,5.176681555380456e-07,0.8859176699140636,-0.46384251867815685,-2.1234505536204563e-07,-2.022589298287373e-07,-0.16143669686088086,-0.33936814678479277,-0.6972984388773691,9.800000924988492
1727705174.8249073,-2.678133090173877e-07,5.206361166134096e-07,0.8870375497660156,-0.46169728752155426,2.7162642512426874e-07,-1.3303326384187068e-07,-0.12411049261597733,0.20060051670092197,0.7227219260434352,9.79999171637124
1727705174.87328,-2.680296679963106e-07,5.23627537897821e-07,0.8881295382564008,-0.4595932150022738,1.7282896935426657e-07,-1.9237185393389577e-07,-0.1750612659202764,0.24746573171391048,0.4699461122324977,9.799999308072712
1727705174.9032204,-2.684631469249214e-07,5.279270049781458e-07,0.8894723519568157,-0.45698898794616494,1.6775269695994603e-07,-2.3749267620510382e-07,-0.21082249723464286,0.24030101011690735,0.4736881981278699,9.799998585319836
1727705175.1608517,-2.688080641274981e-07,5.329908049832857e-07,0.8910816004988648,-0.45384312405502536,6.237231630924946e-07,-2.852160070800409e-07,-0.23714730292090067,-0.05610123350512596,1.706329422551904,9.800007253528108
1727705175.1647785,-2.7130735561073537e-07,5.440357537639513e-07,0.893102149850313,-0.4498539206591172,3.603347895436725e-07,-2.6526714507904645e-07,-0.21529032979870896,-0.045009581120967146,1.0460851867281324,9.799993892642238
1727705175.1908164,-2.6992605949037075e-07,5.457464256579893e-07,0.8945898712149244,-0.44688808701876837,-2.4497510527652876e-08,-2.7040601901006715e-07,-0.2219105585504526,0.046764034396451874,0.006552470355653671,9.799999440180386
1727705175.287401,-2.6808922628517674e-07,5.466200544472042e-07,0.8960710354388053,-0.4439106885931637,4.781569710754355e-08,-2.7015058800522824e-07,-0.22103275665651173,0.02711257717204212,0.20222286316025687,9.800001253463483
1727705175.330224,-2.654521184285136e-07,5.473665671599504e-07,0.8980215745539786,-0.43995141963087525,-2.8040394881628583e-08,-2.6889301161226145e-07,-0.22064877643186254,0.04179020307460216,-0.006630594817499889,9.800000006460788
1727705175.3619807,-2.651821336151187e-07,5.515488989999487e-07,0.8995767358938777,-0.43676274593667214,1.1577462229306895e-07,-2.9811199299717095e-07,-0.2506542669718615,0.251821797180906,0.4337410850968418,9.799998278640464
1727705175.5688894,-2.642452810279385e-07,5.550236150281928e-07,0.9012316437715069,-0.4333376561811004,5.876092854927521e-07,-3.1192896405261643e-07,-0.25028649107301426,-0.025659821657714486,1.7045545445832178,9.800010108533519
1727705175.5832505,-2.6480842937304376e-07,5.633316429902769e-07,0.9033745433393984,-0.42885246232934915,1.234945088791661e-07,-3.1897979497211103e-07,-0.26204888332619036,0.26703472726395633,0.511442370851693,9.799996589735322
1727705175.616911,-2.624471961322206e-07,5.643876176341405e-07,0.9051589085859499,-0.4250733468556981,-5.305259684495259e-08,-3.5190338085815645e-07,-0.2805875818259406,0.09418969308182347,-0.0013402224601250733,9.799999684394288
1727705175.8630843,-2.5821937394960053e-07,5.616283314925304e-07,0.9069311694611848,-0.4212788314873954,-7.504063030072398e-07,-3.487834306216171e-07,-0.27575262742068035,0.010570161335467407,-1.9505521343701115,9.799988673423702
1727705175.87264,-2.5130494667891446e-07,5.52681106960595e-07,0.9085997732305915,-0.41766787293847346,-7.280792589688289e-07,-3.217468269000457e-07,-0.259867747026763,-0.011387807256757455,-1.948638514411009,9.800002509916196
1727705175.912629,-2.4264719016237525e-07,5.41038409287959e-07,0.9106480744408045,-0.4131828705511682,-6.992750443694082e-07,-2.870419418979653e-07,-0.2385842817202252,-0.03471882406926375,-1.945787899772839,9.800002445727536
1727705175.9479437,-2.365536978080919e-07,5.325207730285138e-07,0.9120566391287305,-0.4100642474306496,-6.784033911325176e-07,-2.6252011481342124e-07,-0.22293651723749186,-0.04929974876633345,-1.943715498125387,9.800002399271087
1727705175.9974544,-2.3338117892982396e-07,5.302530521252607e-07,0.9135390802111962,-0.40675096671863714,-1.2606079172280738e-07,-2.8579954146244913e-07,-0.2568106013223078,0.22860803237969232,-0.40980110787720725,9.800001316248535
1727705176.0417771,-2.3068042758175823e-07,5.310225002346068e-07,0.9153033179253052,-0.4027652370731519,-2.2489379634367633e-08,-2.1093689755655367e-07,-0.16543237424938861,-0.4578461582639796,-0.21477808221524586,9.799999238804554
1727705176.2672255,-2.2896106066476328e-07,5.300466091873878e-07,0.9160963820117,-0.40095812607395814,3.333703029329878e-08,-1.424843406678106e-07,-0.14025670933097262,0.35664168476905417,0.04499980579479989,9.800004348375696
1727705176.2706568,-2.27914158081471e-07,5.31041651944856e-07,0.9172263114635406,-0.39836653167485575,3.19725295479791e-08,-2.2723024806470803e-07,-0.21201969377203664,0.33318360782957396,0.03563644624326784,9.79999994676137
1727705176.2975628,-2.2530506576295258e-07,5.319711941051859e-07,0.9193291289001164,-0.39348945698127546,-9.024462578662315e-08,-3.267438734633114e-07,-0.2932529880397949,0.23644627779771807,-0.32335847018230274,9.799998797783394
1727705176.3735244,-2.2226550262558336e-07,5.31544463916943e-07,0.9212282365130888,-0.3890225395149393,-1.0972640424190436e-07,-3.791084855662469e-07,-0.33847711613188186,0.21562619543688064,-0.39454508161516694,9.800000370179655
1727705176.4047449,-2.1896919898648216e-07,5.314734372014164e-07,0.9233522979926352,-0.3839538172637295,-5.07841806962194e-08,-4.2669382229969043e-07,-0.37805349381323394,0.14696155475043302,-0.25575966664938327,9.800001438736864
1727705176.4356613,-2.161697934625076e-07,5.331440691223127e-07,0.9254632023274324,-0.3788375128435973,3.938049818215514e-08,-4.1609055173002726e-07,-0.358617684905594,-0.10486451075102934,-0.037819274065738435,9.800000146571882
1727705176.6323636,-2.12709729083153e-07,5.354064215169908e-07,0.9281657068305605,-0.37216719450187147,3.504637584271525e-08,-4.170841185779798e-07,-0.37583409924396183,0.3098420202222064,0.010630698346431103,9.799999920660264
1727705176.6356459,-2.0974852540206365e-07,5.371469717105729e-07,0.9304901867650353,-0.36631681961607665,3.382466506357971e-08,-4.937859988248488e-07,-0.4416075460170039,0.31071694261002486,-0.0019103059431480145,9.799999991440407
1727705176.6609802,-2.0628572470492255e-07,5.392077617031101e-07,0.9331300987869172,-0.35953889739162387,6.406978355819839e-08,-5.698283205794758e-07,-0.5057975538279007,0.2891742564521445,0.06770703677905676,9.800000529143514
1727705176.967816,-2.0219802616785145e-07,5.451816202264453e-07,0.9367862686843476,-0.3499021103167555,6.890567627170993e-07,-5.96269212018905e-07,-0.5111723421192413,-0.10790493079572278,1.748436082576763,9.800010748338208
1727705176.9733763,-2.0154726903228847e-07,5.562316065254628e-07,0.9393652451379484,-0.3429182646441745,6.685481198957469e-07,-5.822592732786565e-07,-0.4889521740571777,-0.07877783898100454,1.7540711063464414,9.799997788537024
1727705177.0068536,-2.0069486279173947e-07,5.666531207253803e-07,0.9417815514217427,-0.3362253848258543,5.834592422967926e-07,-5.672831679784465e-07,-0.4670827856881567,-0.05324339241082254,1.5784630460795441,9.799996684148178
1727705177.0441806,-1.974346213180975e-07,5.735470062209446e-07,0.9445440364044196,-0.32838477932522725,1.8826811367464397e-07,-4.803344376029499e-07,-0.38031569615519845,-0.286507686195944,0.5063307032985772,9.799998573045126
1727705177.1091192,-1.9522392386688267e-07,5.772442043402235e-07,0.9461603451148956,-0.3236983183949065,1.8219366574901914e-07,-3.9057672141555686e-07,-0.30555397076430185,-0.29340867579079255,0.51698832226327,9.799999327804553
1727705177.1403384,-1.933888057754e-07,5.799529457792564e-07,0.9474463106335719,-0.3199148143904241,1.1846858095993564e-08,-3.1757005960317995e-07,-0.26032274097799873,0.08829346593226423,0.12097170330382816,9.799996374257956
1727705177.3943627,-1.9096116631000117e-07,5.802934168560173e-07,0.9486928030391378,-0.3161992496217694,-3.259999155351513e-08,-3.205807317726674e-07,-0.261385017022485,0.05103774944994771,-0.008933350376769168,9.800000000099951
1727705177.3977911,-1.8354029809851717e-07,5.676488500924988e-07,0.950249207157603,-0.31149068091355636,-7.065095236058405e-07,-2.9059022015783613e-07,-0.23995436589301194,-0.03854042874679582,-1.94597870454689,9.800002462744603
1727705177.410614,-1.7863145215474062e-07,5.592917620106915e-07,0.9513028700372257,-0.30825776463633947,-5.032255098021592e-07,-2.6163162620685425e-07,-0.21596940287211308,-0.16910243039995215,-1.4541367725296186,9.800005428282544
1727705177.4415667,-1.759367359840361e-07,5.564201385979388e-07,0.9520776858173131,-0.30585630640614353,-2.1276083607464162e-07,-1.8147887086089203e-07,-0.14365214170989407,-0.3357958908773216,-0.6928920992106763,9.80000107810811
1727705177.5382621,-1.7357030278903549e-07,5.530521566058434e-07,0.9525910528602987,-0.3042536540621517,-1.8812382405010464e-07,-6.875766697611565e-08,-0.049231366140451996,-0.3210665682046358,-0.6406913583238747,9.800000852605399
1727705177.5683765,-1.750302505678492e-07,5.584714027088185e-07,0.9527093552146448,-0.30388301118383226,6.485717030206183e-07,-2.696354836206098e-08,-0.02527343138573398,-0.0076643341190518015,1.7295849023172634,9.79999784536628
1727705177.7868955,-1.7775886074328072e-07,5.676102567837852e-07,0.9528187712328002,-0.30353976541149036,6.29261355138903e-07,-2.5366777005449734e-08,-0.023407036964155845,-0.0056866627796084215,1.7295520010356336,9.799997815666293
1727705177.79228,-1.8062581534732682e-07,5.773147089817738e-07,0.9529187857839225,-0.30322563826254634,2.3663136314464677e-07,-1.0508711459827746e-08,-0.0020057242474845536,-0.2327719082035872,0.6768088425687852,9.799993043896514
1727705177.8158448,-1.8075699368300211e-07,5.774234806768071e-07,0.9528796653678603,-0.3033485508916574,-2.035868522819577e-08,1.5090061558968415e-08,0.009860056653127648,-0.010846298828973954,0.0031278150541697906,9.799999806168785
1727705178.0867705,-1.8079632377557686e-07,5.770728691818659e-07,0.9528337552982973,-0.3034927260475586,-2.131273731281319e-08,1.5735006113828946e-08,0.010114243700025422,-0.0017362044711621428,-1.7698308813419212e-05,9.800000002759427
1727705178.089557,-1.8177768582097607e-07,5.79137591006446e-07,0.9526106920922528,-0.30419215853001597,1.4800995109473203e-07,7.428874631035236e-08,0.06831137670899726,-0.27360399749131475,0.43905627508324296,9.799999692266594
1727705178.1188703,-1.8288831858243783e-07,5.790981406899842e-07,0.9520756448081871,-0.30586265964106507,-3.037431615888083e-09,1.1491502183142568e-07,0.0947746216262878,-0.11822178697010119,0.0468862718251712,9.80000033519371
1727705178.1619945,-1.8367927598066402e-07,5.784614020428107e-07,0.951628389708612,-0.3072513757499311,-2.4846241875880193e-08,1.230687471176657e-07,0.09756028719914622,-0.01870511114981658,-0.0014297114116223065,9.799999999165411
1727705178.1909537,-1.8433299629142372e-07,5.772065550947387e-07,0.9511359352482822,-0.3087724610113544,-2.4983323695661056e-08,1.3485831808126057e-07,0.10766245332444593,-0.025806080565218107,-0.008742362599747283,9.800000281360862
1727705178.245563,-1.8566115265135498e-07,5.767839411716843e-07,0.950437743834007,-0.31091493224892774,7.050110920896128e-08,1.4580316951471074e-07,0.12710433813315888,-0.28641522107047573,0.21676810048046458,9.800001536081044
1727705178.4959118,-1.8678025484836091e-07,5.761405060722062e-07,0.9498128975194007,-0.31281857314653405,-2.1634378804883233e-08,1.6741329041461396e-07,0.13434050216588164,-0.0282644181685911,-0.0025709132461963348,9.799999977899391
1727705178.4997418,-1.8901286139151226e-07,5.783914938483925e-07,0.9490435332835011,-0.31514500143965174,1.4573784895216576e-07,2.121511554377286e-07,0.1790605720088741,-0.25838987061618035,0.43832225561204596,9.799998285028733
1727705178.5216508,-1.916472560597599e-07,5.784918189733732e-07,0.9477776880759128,-0.31893173875471625,9.859152380716593e-08,2.522004764447607e-07,0.20435280018090113,-0.09328530465238911,0.3347959467149256,9.80000201226271
1727705178.548802,-1.9340737529663945e-07,5.775559205921615e-07,0.9467890786407407,-0.3218546885882609,-2.7205181608503605e-08,2.5686919433784993e-07,0.20586849240699603,-0.04094500438438098,-0.004966204203763275,9.799999968951699
1727705178.627817,-1.9526870020668268e-07,5.7672015030959e-07,0.9457378286275424,-0.324930699538364,-2.618757050843985e-08,2.7123982517676163e-07,0.2180029231017224,-0.05185748378940394,-0.005709446856062366,9.799999921395763
1727705178.6588516,-1.971055430658746e-07,5.75658092612868e-07,0.9446690916299325,-0.32802485777560847,-2.613278269514498e-08,2.71656404806604e-07,0.21826327355835334,-0.04258005677453849,-0.006506449955503425,9.800000012613348
1727705178.833387,-1.9859523176854974e-07,5.413531990202887e-07,0.9381630361760874,-0.34619375724084417,3.550227627674883e-08,-9.00650165196675e-08,-0.09303441051233935,0.36732325457640874,0.049458885726215714,9.799999933091591
1727705178.8622923,-1.9784438451060594e-07,5.422030708836118e-07,0.9388613544609883,-0.34429545030300013,3.5083030427932394e-08,-1.649757001747574e-07,-0.14591551518769785,0.08341314340506617,0.009479531081035556,9.799999928415872
1727705178.8924482,-1.9681729098664439e-07,5.431249659194861e-07,0.9396228999948177,-0.34221163890930795,3.371863889858254e-08,-1.7154425417751475e-07,-0.14814390459271393,0.002210234807204634,-0.0028076533718682235,9.799999995431525
1727705178.8943157,-2.0034134703756797e-07,5.759203310003712e-07,0.9430764971386828,-0.3325758868953971,-2.5787328774461292e-08,3.062438606342338e-07,0.24621767360324778,-0.06243604978553086,-0.0033135180872392945,9.799999719460125
1727705178.90021,-1.989162460164204e-07,5.650181316331747e-07,0.9418947736083827,-0.3359080758910899,-7.090125858909839e-07,2.8730928135575107e-07,0.23047243054041494,0.02801178524982222,-1.924416896250055,9.800002445452925
1727705178.9187174,-1.9737363132276496e-07,5.544890230323605e-07,0.9407804718600161,-0.33901637684114716,-6.879866459460339e-07,2.626841187049446e-07,0.21499507923348388,0.04226548027345446,-1.9228095353225545,9.800002399231053
1727705178.9329696,-1.9542288749867612e-07,5.443327610024038e-07,0.9406330044937905,-0.33942532441856815,3.2374770868828716e-08,-1.7186301024178608e-07,-0.14819229658847105,0.00044678964506619676,-0.003062042156154138,9.79999999662299
1727705178.9617538,-1.9436778774847072e-07,5.452200927842277e-07,0.9413851844918941,-0.33733356550872184,3.140260908675906e-08,-1.7199359998297438e-07,-0.14819257925911314,0.0004364890494701605,-0.003063508754694407,9.799999996832087
1727705178.9980404,-1.9312937375285645e-07,5.461640280954128e-07,0.9423494212419342,-0.3346304951504807,3.3307723445436076e-08,-2.3261199219056647e-07,-0.20532716369635418,0.12891070871710936,0.01805103623684295,9.800000020266376
1727705179.233379,-1.9088253757025947e-07,5.475842378275635e-07,0.9439556835330674,-0.33007221562149536,2.860049512941984e-08,-3.0557304598880216e-07,-0.274968949289847,0.30850710519178165,0.025852077656417248,9.799999962236736
1727705179.2432518,-1.9602545087930858e-07,5.43435609870053e-07,0.9394492081489715,-0.34268817503371246,-2.684830099770353e-07,2.1711282415094507e-07,0.1725255903161776,0.3009423687207034,-0.795278453016853,9.800006816370216
1727705179.250149,-1.963250970920068e-07,5.403617394967602e-07,0.9388154171456374,-0.3444206912038423,-1.8432471801602564e-07,1.3137179456737638e-07,0.09889059379252658,0.331934794421578,-0.5704523764559262,9.8000007258972
1727705179.2535756,-1.9644585753304876e-07,5.386684438565831e-07,0.938506211194573,-0.34526235176873593,1.5818291575853364e-08,6.100441269236386e-08,0.04912583499409275,0.07973664367066345,-0.06189353211609777,9.800003236484695
1727705179.262989,-1.8860291937953115e-07,5.48893623482119e-07,0.9455058590842076,-0.325605083555367,4.1200906059021106e-08,-3.771065730314101e-07,-0.32997404085894355,0.1581182684276896,0.034227669916369975,9.800000205978288
1727705179.2917368,-1.9725272109125654e-07,5.392248154476637e-07,0.9381802449020451,-0.3461471191201925,4.0567142399476614e-08,5.47392276340955e-08,0.04694914784822767,0.0005172830324251876,-0.0002576187236395377,9.799999992751966
1727705179.2997363,-1.8599014398496845e-07,5.502900461336639e-07,0.9471317308058673,-0.3208449539892197,3.044118825475072e-08,-3.9162351065770397e-07,-0.33602540029320643,0.007354966452584603,-0.014900226227553838,9.800000001867993
1727705179.322471,-1.978496946350584e-07,5.396391003197958e-07,0.9379363016901949,-0.34680757484718955,3.937421057976937e-08,5.473477628992889e-08,0.04693643575027026,5.398427691130951e-05,-0.0002957981378330688,9.799999991984562
1727705179.3899536,-1.9845314353397526e-07,5.400334473622762e-07,0.9377475238184649,-0.34731769544900254,3.84556227321207e-08,3.8861073734067697e-08,0.014913632611861237,0.4483708172225214,0.06216989350461426,9.799999967148205
1727705179.423602,-1.986646813160556e-07,5.405572186224e-07,0.9377951489544678,-0.34718908190946296,3.6875290855732225e-08,-1.2437196486998938e-08,-0.01200578583769804,0.02146275378740523,0.0030966031531323005,9.799999979753
1727705179.5808187,-1.8340002534715441e-07,5.515871293733529e-07,0.948561792483714,-0.31659204955233083,2.503196848395146e-08,-3.299722823809749e-07,-0.26212766017740535,-0.5166936685124859,-0.0905673886057425,9.800000101719622
1727705179.5909863,-1.8120724121101403e-07,5.528342296212168e-07,0.9496420441750391,-0.3133368601596606,2.4224378131872677e-08,-1.6098631976432058e-07,-0.11871824576634292,-0.48422993093383593,-0.071772508093832,9.800000081442647
1727705179.6212125,-1.805808741138708e-07,5.534192836639994e-07,0.9498875110806331,-0.312591932545773,2.3766314939588393e-08,-4.389189103482271e-08,-0.019884789816782565,-0.4499729805539577,-0.06293213647902472,9.800000071195651
1727705179.651361,-1.805558198449282e-07,5.538511377464084e-07,0.9500438781731022,-0.3121163717998018,2.362421952261359e-08,-5.2689785479739654e-08,-0.06076169702361661,0.37825807449775667,0.05195719079697796,9.799999932847143
1727705179.7120287,-1.7962902193713234e-07,5.546386095547245e-07,0.9508219746924198,-0.3097379092743856,2.2443970736973476e-08,-1.7368722761322267e-07,-0.16251595955173823,0.3439068921597362,0.04217745416903641,9.799999943781009
1727705179.74019,-1.7819682861242192e-07,5.554510510042898e-07,0.9517912796084651,-0.30674641002127506,2.1652943454518178e-08,-2.5717273193539164e-07,-0.23263998616503265,0.3204546111854531,0.03250494994281234,9.79999995537139
1727705179.956994,-1.7630455246104708e-07,5.563865240901526e-07,0.9527900867523903,-0.3036297919935257,2.031574336945105e-08,-2.3639070487799745e-07,-0.18173300844474854,-0.5059482251941497,-0.07975471047881978,9.80000009181169
1727705179.9832187,-1.7493521761753084e-07,5.572430137280977e-07,0.9533689762046476,-0.3018072153050046,1.9810225676665937e-08,-7.45933971696604e-08,-0.04562036211812529,-0.45898709806157556,-0.06471860024603485,9.800000074420602
1727705180.0147097,-1.7489580399663859e-07,5.576321885583182e-07,0.9533164986740388,-0.3019729348063,3.0938049708905135e-08,2.7125557746368715e-08,0.03409076489994341,-0.2758635789465224,-0.007066044992489596,9.800000240901017
1727705180.0513117,-1.7524401376247166e-07,5.578403482047217e-07,0.9532483468878086,-0.30218800299700505,2.0109651381628412e-08,5.02419039701472e-09,-0.005207742592152974,0.22393874400970862,0.03352656556831154,9.799999953168355
1727705180.0770826,-1.7526625170665715e-07,5.581282908856906e-07,0.9532963009793096,-0.3020366907162496,1.8452707886792104e-08,-1.2434418630169324e-08,-0.011220566811511172,0.004790001101654597,0.0006879143138367144,9.799999993227011
1727705180.1149673,-1.75257493343628e-07,5.585086751374441e-07,0.9533647746462623,-0.30182048714979337,1.7711018482727532e-08,-1.2839533184106373e-08,-0.011351142192026948,3.099758371171754e-05,-2.4653092978570263e-06,9.79999999622374
1727705180.3125873,-1.753071394190085e-07,5.587631904609692e-07,0.9532899971070873,-0.3020565864456965,1.700129270885326e-08,3.43403945236329e-08,0.044149633111678716,-0.38382634265907173,-0.05361433051067527,9.800000061801036
1727705180.3437452,-1.7596238870501146e-07,5.588178679983329e-07,0.9528502742702423,-0.3034408588551987,1.6816580708062762e-08,1.2795779014202577e-07,0.12253831639023521,-0.35676986100807917,-0.05262013503387802,9.800000060600226
1727705180.3965464,-1.777462299253686e-07,5.58596194418498e-07,0.9518690957362843,-0.30650485246051956,1.75987178167709e-08,1.9707991649351324e-07,0.16746806935340525,-0.015394751313708979,-0.006305991678531322,9.800000013973168
1727705180.6659846,-1.7929672522224758e-07,5.583497320991079e-07,0.950985150615201,-0.30923654911578496,1.6104314043152878e-08,2.383467569273691e-07,0.21484713874998415,-0.32458796843174775,-0.05528290410218999,9.800000063825985
1727705180.6687052,-1.8137052274110563e-07,5.579461592499609e-07,0.9497872456887902,-0.31289644920733367,2.194816450564807e-08,3.1354661539534665e-07,0.27295792975498706,-0.1841807830400865,-0.026572002039799,9.800000158666174
1727705180.7129276,-1.8459860805066213e-07,5.572511912433149e-07,0.9480356230186747,-0.31816419894018333,1.8268680256339163e-08,3.2838204177542613e-07,0.27802359762276474,0.000438805971213805,-0.010970351418020134,9.800000009691406
1727705180.738249,-1.8702999946983845e-07,5.567033418939821e-07,0.9467003977154407,-0.3221154404325901,1.775166182175166e-08,3.2854793359687503e-07,0.2780531873882842,0.0015176078901390484,-0.010817109395273219,9.80000000917923
1727705180.8089752,-1.8945690320986106e-07,5.561381359636112e-07,0.9453486862942077,-0.32606113126447694,1.7245703028783347e-08,3.286271749034732e-07,0.2780538199782362,0.0015406712030176985,-0.010813744925162487,9.800000009282108
1727705180.8482869,-1.9202796513114453e-07,5.554569928078361e-07,0.9437632525572711,-0.3306220245570078,1.412688558731238e-08,3.9190042952362283e-07,0.34383265534056745,-0.3046311811802504,-0.06938841116955977,9.800000080063683
1727705181.092522,-1.978932666127907e-07,5.594440112696073e-07,0.9414295428354147,-0.3372097505653567,4.3099977561279113e-07,4.080296808226895e-07,0.3326074253991165,0.2655474091337027,1.1834642600783665,9.799993847769526
1727705181.0972273,-2.0193689869925287e-07,5.623922008673416e-07,0.939990313870396,-0.3412011281187059,2.5139712746188447e-07,3.26570057068544e-07,0.2576588018938159,0.3505786763977657,0.7380573416904099,9.79999828562542
1727705181.1263258,-2.050469082438838e-07,5.646401758422116e-07,0.9389084191916706,-0.3441670820555582,2.067827710144262e-07,2.4173120024678373e-07,0.18727977658371212,0.3116250381167311,0.6370301468970507,9.799999119288389
1727705181.1684518,-2.0893225263931725e-07,5.69561166763451e-07,0.9379399280126995,-0.3467977673503161,2.4972835454480986e-07,1.5597080682671903e-07,0.11746330656563629,0.252433812245479,0.7861045766158592,9.799993194306774
1727705181.208006,-2.1070541397560066e-07,5.717336430310307e-07,0.9375466809381057,-0.34785948465087246,1.6712042678741534e-07,8.076563426265264e-08,0.05456065009148113,0.283691860680841,0.5812363171179179,9.799999152338227
1727705181.2345402,-2.1188055862473482e-07,5.739669500445379e-07,0.9374480851200473,-0.34812510352512943,1.819903533906235e-07,1.3825547253801014e-08,0.00874930522873201,0.0703481561636994,0.6071863980511679,9.799999732794452
1727705181.500563,-2.1158837035239492e-07,5.731497281819034e-07,0.937552012710746,-0.3478451141839653,-6.852457019188894e-08,-4.448843326229101e-08,-0.05140444024583622,0.4067750009474019,-0.039876032160838286,9.800000059300103
1727705181.5328338,-2.1148991070576917e-07,5.748359485586047e-07,0.9380356787352093,-0.3465386925285542,1.3099920236730674e-07,-1.2628705900434478e-07,-0.1114159829698145,0.2690252474290133,0.49416196305250143,9.799999570076213
1727705181.5615187,-2.1085357453243846e-07,5.766489758839302e-07,0.9387970510315911,-0.34447074908330183,7.713224290363534e-08,-1.9256638950564078e-07,-0.1616949033219926,0.20972993127840087,0.34205692028357676,9.799998721277898
1727705181.8198185,-2.0991739005765795e-07,5.786337103363128e-07,0.9396622880652706,-0.34210347029453125,3.6735567388973474e-07,-2.110376912841019e-07,-0.17227836748859554,0.10834741111016881,1.131931982716292,9.800006578326359
1727705181.826639,-2.0843574653993782e-07,5.818125238478348e-07,0.9410998065228552,-0.3381289016961761,1.0504463023332754e-07,-2.8473625185288944e-07,-0.2355397780204514,0.2660725602418416,0.43990890887492917,9.799999362996557
1727705181.8595269,-2.026744323217762e-07,5.721801790723661e-07,0.9422374077824991,-0.3349457678116679,-7.267347747932549e-07,-2.7528402073993986e-07,-0.22028939816988588,-0.03283186400588226,-1.9433367684973135,9.800002505399435
1727705181.8905125,-1.9814132981431127e-07,5.653683109478891e-07,0.9433378485397363,-0.3318338492560131,-2.6043037160464767e-07,-2.6856164213239706e-07,-0.2298733843851886,0.23113592999538574,-0.6696199601686834,9.800007664697873
1727705181.962212,-1.920478771555301e-07,5.56038737181859e-07,0.9447966754209074,-0.3276572021385378,-2.2042792045708396e-07,-2.6106064234720736e-07,-0.22735101073976963,0.18529500368436982,-0.6240500996590395,9.800007806434039
1727705181.9940948,-1.8970035002854274e-07,5.559709715643403e-07,0.9461040302590464,-0.32386287827913274,-1.156799190891902e-07,-3.25686786596154e-07,-0.2844226967296024,0.23368696216303697,-0.3411018189610369,9.799999339813215
1727705182.2131586,-1.8682188244638462e-07,5.557331024923591e-07,0.9476344689614191,-0.3193570309792243,1.5583423975531578e-08,-3.825404047516207e-07,-0.3369422472248724,0.31497404938885776,0.017022306546364063,9.800002717942673
1727705182.2175436,-1.8211842591107755e-07,5.550843248173257e-07,0.950020770484875,-0.3121866999841333,-1.243409091924027e-07,-4.6053579200248075e-07,-0.4003864772538203,0.21439631647916343,-0.4036626749498647,9.800000419107217
1727705182.2470224,-1.7868885791610187e-07,5.561501954369916e-07,0.9519275799149025,-0.3063231669283532,2.165796321916556e-08,-4.835660641098429e-07,-0.4129443038888173,0.02092107010455027,-0.032630248361098915,9.800000277258215
1727705182.276846,-1.7532251750658683e-07,5.576142973801362e-07,0.9538096070826323,-0.3004117731323671,2.493348983370044e-08,-4.854650190134223e-07,-0.41369806296586537,0.004441629303710918,-0.02397746538671224,9.800000026628306
1727705182.3087277,-1.719407938724946e-07,5.590543681143048e-07,0.9556555970540623,-0.2944866377595105,2.4224676273282153e-08,-4.85817008254336e-07,-0.41374335782493543,0.0034557885435917727,-0.023950749198510143,9.800000023151336
1727705182.3558216,-1.6724356236209434e-07,5.609754050459755e-07,0.9582363814712604,-0.28597733690717925,3.490674969130456e-08,-5.448166414485649e-07,-0.47140764268618524,0.19753990481004435,0.02349377140463131,9.800000300230959
1727705182.5863652,-1.6422573156325873e-07,5.656588655873763e-07,0.9602526683017294,-0.2791322500519459,6.750846873856375e-07,-5.59989178143021e-07,-0.47141631378005777,-0.10802390951327438,1.7578357333610022,9.800010742034061
1727705182.6167603,-1.6294877975036656e-07,5.763518742461829e-07,0.9621416778807315,-0.27254979670601825,6.549429103394977e-07,-5.443613936163757e-07,-0.4491584368190284,-0.08114069860296642,1.7630098456638317,9.799997756488715
1727705182.6773384,-1.5935517751123313e-07,5.839896749468387e-07,0.9645925624909013,-0.2637445513880245,1.6198082689229154e-07,-5.699669344138198e-07,-0.4739797121076594,0.2327981690173925,0.481296441293601,9.799998082813975
1727705182.935129,-1.5446731375358338e-07,5.831843334281703e-07,0.966525082433178,-0.2565721439033759,-6.848975003420617e-07,-6.110794764748554e-07,-0.4952898310481175,-0.027360366731936373,-1.8991570708042933,9.79998610440962
1727705182.9371448,-1.4784603598673378e-07,5.755301114139515e-07,0.9683611105272781,-0.24955311983227885,-4.6733194116790844e-07,-5.776185004610671e-07,-0.4818683513003102,0.051667117824842,-1.3331601704700926,9.800005622728422
1727705182.9718893,-1.410705182869395e-07,5.729327313543421e-07,0.9708475269893679,-0.2396978918102537,-1.4840558988314077e-07,-6.167560189575069e-07,-0.5277101524423271,0.22250128787194148,-0.46495518146605963,9.800001141541456
1727705183.0022635,-1.3591123293820387e-07,5.721135954138114e-07,0.972817418601887,-0.23157346580386823,-1.3112377320124126e-07,-6.663406050901596e-07,-0.5722232424915268,0.226084174845025,-0.43896525093614347,9.800000566419952
1727705183.0775144,-1.304995549941168e-07,5.717927206993588e-07,0.9748627517723791,-0.22280622793459182,-5.24469313382651e-08,-7.135283236783548e-07,-0.6112654063846522,0.13847442182007494,-0.25422075174258935,9.800001767159443
1727705183.1140661,-1.2523993275123293e-07,5.73266471782799e-07,0.9769005752242705,-0.21369432871778615,2.6683514718944003e-08,-7.368025502104174e-07,-0.6281519524064474,0.0602729107042332,-0.05138504002514714,9.800000124968022
1727705183.361478,-1.1873448361963625e-07,5.78501408186567e-07,0.9795085844301022,-0.2014024156443721,6.715704736823608e-07,-7.393292877046988e-07,-0.6228926889726724,-0.10743945100610432,1.7180555337714285,9.800010682954493
1727705183.3706698,-1.1524911151599395e-07,5.892734442081742e-07,0.9813048191352656,-0.1924600008873087,6.515157769884073e-07,-7.272533626616395e-07,-0.6007277943737416,-0.07209662511890574,1.7249990435804787,9.799997797407356
1727705183.3888636,-1.1169016108214527e-07,5.997097893460128e-07,0.9829594410409546,-0.18382257007256259,6.320134146358464e-07,-7.144506795473563e-07,-0.5791504376965302,-0.039225578064113135,1.7314793109093554,9.799997760352104
1727705183.4330795,-1.0643692586960988e-07,6.108559785477005e-07,0.9849859557886298,-0.17263448930840802,2.488787939983107e-07,-7.092253167083739e-07,-0.570280839810813,0.21250307806760033,0.769170985554441,9.79999253633239
1727705183.46583,-1.0147827086683854e-07,6.146994586739652e-07,0.9864753819236328,-0.16390948983580717,1.884402671204508e-07,-7.497578174695773e-07,-0.6002487576188479,0.2649929310085974,0.6168159868331786,9.799999010981857
1727705183.5020318,-9.571640907726768e-08,6.153426554305582e-07,0.9879239596086087,-0.15493950442305066,-4.367425303243108e-08,-7.652724366514337e-07,-0.6060234360059485,0.12575442211116616,-0.044778126449818885,9.799999800620744
1727705183.7543898,-8.837631647168367e-08,6.18640171222364e-07,0.9897247620374316,-0.14298564756491605,5.66472396696119e-07,-7.606443052565505e-07,-0.6004158127563906,0.04875703802022546,1.6341085341167352,9.800010022197625
1727705183.7829936,-8.345169531067477e-08,6.250529658303315e-07,0.9909629949603258,-0.13413553823973556,1.198616255832313e-07,-7.621132510455903e-07,-0.5978915305941677,0.2068910894139039,0.45948790520936267,9.799992884691422
1727705183.8227615,-7.67147643555916e-08,6.181879626620478e-07,0.9921184381010751,-0.1253036503039499,-7.607699857735278e-07,-7.508329756214085e-07,-0.5890374815582188,0.09283510379911496,-2.013884985553836,9.800002662417084
1727705184.1170082,-6.98497222796815e-08,6.077682942698218e-07,0.9931695673633576,-0.11667994884686489,-7.383257428470178e-07,-7.163367006321771e-07,-0.5741583027653059,0.05135824968240289,-2.0102616110191125,9.800002608553871
1727705184.1230762,-6.406858142841746e-08,6.200600372584896e-07,0.9944151073398271,-0.10553953900757501,5.689956345063184e-07,-6.972859955342482e-07,-0.5524035692070768,0.04228971851954206,1.6471917354575416,9.79999783149352
1727705184.1405013,-5.967896021534733e-08,6.289294883597268e-07,0.9952400638814562,-0.09745365690848212,5.519024096653704e-07,-6.881037018870783e-07,-0.536636403941509,0.06857814441311669,1.6515552704181338,9.799997801662947
1727705184.1708977,-5.525370022240697e-08,6.37484993103886e-07,0.9959784016937712,-0.08959365691337412,5.306073184666259e-07,-6.783980829865634e-07,-0.5210741587888511,0.09006541159958767,1.6422386463701917,9.799997697100673
1727705184.2344482,-4.909358169318936e-08,6.421486765347771e-07,0.9967807046081907,-0.08017622415893783,1.254021870749766e-07,-5.902046414557629e-07,-0.43912803297639574,-0.16328584271584828,0.5349814741471025,9.79999863748513
1727705184.267447,-4.5161964426026225e-08,6.453477772333312e-07,0.9972414283217869,-0.07422623281767604,1.6837143577860154e-07,-5.112026018704411e-07,-0.38013695332251407,-0.10341092823108305,0.6909298266328086,9.799996658275433
1727705184.5159733,-4.137238486242118e-08,6.445283343152866e-07,0.9976354928966957,-0.06872716575234594,-9.83118504676676e-08,-4.794714119452358e-07,-0.3645828732745202,0.11468983984197545,-0.012218656703749317,9.799999780571161
1727705184.5160396,-3.7110812007726344e-08,6.501141655480383e-07,0.9980664313624501,-0.062156243346906614,1.200863020134873e-07,-4.0703783740362254e-07,-0.29660487489560317,-0.18904779545259232,0.5850170183068647,9.799998229098856
1727705184.536971,-3.422128795798755e-08,6.494221087850978e-07,0.9983158903983433,-0.058011920996808686,-1.0960298649925107e-07,-3.6200383560005325e-07,-0.2743102755928365,0.10349007928752808,-0.004020101547103075,9.799999648295866
1727705184.851684,-3.1402951133369984e-08,6.479355010446019e-07,0.9985457756814514,-0.05391042448643224,-1.095228795957587e-07,-3.5941428889427325e-07,-0.2738090745516182,0.12094466817097925,-0.010119521306905698,9.800000032768303
1727705184.8539958,-2.9055406898239353e-08,6.544856226154171e-07,0.9987481467370778,-0.05002138931320338,2.606369986536145e-07,-3.3811167241737176e-07,-0.247161034948436,-0.10115713617776373,1.0128020835730631,9.799993784848924
1727705184.875895,-2.6155532460207462e-08,6.546707442828874e-07,0.9989446458003743,-0.045930323603645296,-1.1916925085151963e-07,-2.5806250941336237e-07,-0.19470978691275675,0.07383117848274888,0.0034534806049556326,9.799999499337035
1727705184.9065316,-2.4146854100328443e-08,6.529567018147749e-07,0.9990741516747654,-0.043021383693699566,-1.199085401891253e-07,-2.5523735000473393e-07,-0.1940513351798806,0.09659462513426972,-0.005096820229380895,9.80000002814208
1727705184.9357445,-2.205312521073118e-08,6.509308089252437e-07,0.9992101925051341,-0.03973652216070839,-1.52340068309536e-07,-3.0447905775849074e-07,-0.24414052609646175,0.4570943555787661,-0.061303690172228364,9.8000001030625
1727705184.988647,-1.851411319006452e-08,6.489417925983716e-07,0.9994109718369977,-0.03431777049003171,-1.165193642744111e-07,-3.752076739367749e-07,-0.2886049358209417,0.24059857375874102,-0.01375482577794087,9.800000290803506
1727705185.2699013,-1.5563886987778248e-08,6.474227718234683e-07,0.9995512480263661,-0.029955009072179795,-1.0727395254322258e-07,-3.8254291163599517e-07,-0.2912870716804818,0.1479638616695979,-0.011098120935316962,9.800000035806848
1727705185.2733278,-1.2403482975707109e-08,6.355983103999978e-07,0.9996688760698813,-0.025732046494128358,-7.869713170237394e-07,-3.602911253975069e-07,-0.2767675334536281,0.06543629361356426,-1.9504714230580846,9.800002637390554
1727705185.2912917,-8.613492078052958e-09,6.203544518241017e-07,0.999790933157986,-0.0204472485850537,-7.558557712886633e-07,-3.245404763187065e-07,-0.25674548473069847,0.032987820786306084,-1.9481179562530877,9.800002568707106
1727705185.3221517,-6.0745584783733626e-09,6.0930341340497e-07,0.9998597346706422,-0.016748462137807396,-7.333002225871677e-07,-2.9864109175617465e-07,-0.24159019269089566,0.013094676873508012,-1.9460912593829638,9.800002518728926
1727705185.403082,-3.953000865247023e-09,6.116797535810914e-07,0.9999118442084078,-0.013277944546001008,5.929779635600134e-07,-2.7853991863323127e-07,-0.2262339413704597,-0.003966965388716919,1.707858015959295,9.799997792599708
1727705185.4359195,-2.016306709612659e-09,6.204345959448668e-07,0.9999496785934981,-0.010031962937265437,5.75378106124025e-07,-2.6464024204817034e-07,-0.21163427635623827,0.008422348539718925,1.7100290711150539,9.799997762649852
1727705185.6892054,4.5775781359119496e-10,6.31694570338904e-07,0.9999818556269507,-0.006023986759699673,5.527090175027725e-07,-2.472408848801085e-07,-0.1939038549880949,0.022561009724170217,1.712495370019825,9.799997725470051
1727705185.692005,2.5289029780243666e-09,6.310685602181875e-07,0.9999969524976547,-0.0024688043675320515,3.6763219765821225e-09,-3.118891416872105e-07,-0.25197889652125643,0.27503350410125826,0.22944166587887022,9.800000206036085
1727705185.695087,4.9715352673851475e-09,6.30053332007614e-07,0.9999990588953137,0.00137193589142659,-7.215643806427731e-08,-3.255749073880377e-07,-0.2565349918166876,0.11797566628806351,-0.0077449354963052665,9.799999995632477
1727705185.995723,8.239748408164755e-09,6.291713130169089e-07,0.999978954878149,0.006487665250959951,-6.88587638436904e-08,-3.238306979940209e-07,-0.25538713032509575,0.11372926956403584,-0.0038595109593251823,9.79999979603242
1727705186.0000486,1.0714567942071332e-08,6.366412752086749e-07,0.9999486588947878,0.010133093017915873,3.9737486116042134e-07,-3.0705636380092623e-07,-0.23371382197238108,-0.043937213764742904,1.2970406197979991,9.799995405419564
1727705186.0039725,1.2803129785732356e-08,6.363438146728187e-07,0.9999125540099851,0.01322438402435816,-8.238103061198168e-08,-2.6042667338592855e-07,-0.2028096304767045,0.07780637869087052,0.0005048541760085035,9.799999604444587
1727705186.0406208,1.536848586228295e-08,6.346498093612299e-07,0.9998509005460432,0.01726779305132986,-8.253490571931032e-08,-2.576114831591005e-07,-0.20213291144294981,0.10118968803511516,-0.005500784385755943,9.800000022077327
1727705186.0708685,1.727548441495052e-08,6.337145851693122e-07,0.9997948264892842,0.02025598491458719,-7.318776516209347e-08,-2.5160609899799375e-07,-0.19727933126655206,0.08490040641734956,0.013556847146937313,9.799999085994482
1727705186.0997012,1.91323368467531e-08,6.325081337152746e-07,0.999731327566594,0.023179143244193234,-7.77510616188978e-08,-2.4623132581395117e-07,-0.19087996905845783,0.014634356614684423,-0.014587130195928989,9.800000035997781
1727705186.13767,2.0906889781078182e-08,6.313225986319717e-07,0.9996616564942677,0.02601100795311867,-7.622869749963617e-08,-2.387035837037522e-07,-0.18860585452330034,0.09307548555952724,-0.005028181669989146,9.800000020598228
1727705186.3682306,2.3098666676653666e-08,6.299524939388372e-07,0.9995676663252631,0.029402048171354722,-7.317490770753981e-08,-2.0235113771891654e-07,-0.16028635512825734,0.058822421995059014,-0.005050511257178367,9.799999956034672
1727705186.3839498,2.4562652648324776e-08,6.288340157773482e-07,0.9994943462090001,0.0317970422499827,-7.158842444356852e-08,-2.001372961977391e-07,-0.15967608652586518,0.07987339700516331,-0.003494734770459323,9.80000001755863
1727705186.420598,2.6035448699156392e-08,6.277432538438865e-07,0.9994140390013856,0.034228331051077754,-6.949220368560066e-08,-2.033274868012018e-07,-0.1624723092040804,0.0839186669904408,-0.0032330843445825563,9.800000016152932
1727705186.4975443,2.7739249815179093e-08,6.194239991496037e-07,0.9992993558635749,0.037427227659286466,-7.544456775738892e-07,-1.948245672319778e-07,-0.155936684999913,0.03268831446957545,-1.934965752669521,9.800002549930644
1727705186.5286827,2.8691502052780446e-08,6.082984846936634e-07,0.9992128771334451,0.03966895726297637,-7.319249688486009e-07,-1.786300970392614e-07,-0.1464208034884817,0.02124599568249284,-1.9338207380082435,9.800002501771049
1727705186.5686612,2.950995709334219e-08,5.975061328805049e-07,0.9991271571955643,0.04177228451918924,-7.100722669883301e-07,-1.6360655204647395e-07,-0.1373454483744513,0.011060762655489076,-1.9327503604313052,9.800002454601298
1727705186.7855413,3.129358181589901e-08,6.031643374586865e-07,0.999015151376837,0.04437034278828572,6.093544434740811e-07,-1.503668798170075e-07,-0.1257083434151802,0.006403203414366319,1.7206798712902323,9.799997799410663
1727705186.79013,3.2781532701502475e-08,6.120728802232308e-07,0.9989334571144415,0.04617302520968669,5.91249350742863e-07,-1.429585715071354e-07,-0.1176702919050949,0.012792836092240729,1.7214174756074567,9.799997771191784
1727705186.8205662,3.421985371819203e-08,6.207148032111673e-07,0.9988539909191567,0.04786130821954748,5.736765751078044e-07,-1.3592630896030216e-07,-0.11024520258800002,0.018355591093828855,1.7220543325285913,9.799997743936112
1727705187.1269407,3.5135662665341385e-08,6.215915311149127e-07,0.9987910053311967,0.04915819025462148,-7.761146898940644e-08,-9.561153543326007e-08,-0.07678185825131945,-0.0373635217016166,-0.06556410920939786,9.800001369644301
1727705187.130007,3.593847124491328e-08,6.204112115103004e-07,0.9987163100937595,0.05065305471853754,-5.562414473632734e-08,-8.898024954613939e-08,-0.07464308274784118,0.03639262168647582,-0.0008444047127654095,9.800000012691017
1727705187.159004,3.6557683717161214e-08,6.198130969305586e-07,0.9986577197087101,0.051795355639417284,-5.36074866215248e-08,-9.12352387032018e-08,-0.07644605047245843,0.039239487254651526,0.0018004682653558295,9.799999902822387
1727705187.1893456,3.717331133401453e-08,6.189843442666213e-07,0.9985976421820076,0.052940995723072704,-5.287379518946794e-08,-9.134172589059406e-08,-0.07648510899300526,0.03789451778171092,-0.0007825434337737403,9.800000010658291
1727705187.2409906,3.799588548850677e-08,6.17913676816234e-07,0.9985154890466327,0.05446850588716723,-5.0809249510036964e-08,-9.132588290929624e-08,-0.07648596568272588,0.03786495700259334,-0.00079370815683092,9.800000010556992
1727705187.278723,3.860804792447215e-08,6.170902616245512e-07,0.9984528012809819,0.0556057875924596,-4.9379353792393636e-08,-9.053895369673808e-08,-0.07586793455638288,0.0370603676715055,-0.0012980453338968536,9.80000003065768
1727705187.5332599,3.922729590251254e-08,6.175131447342416e-07,0.9984018213280959,0.05651374318126523,-2.051064022187415e-08,-6.179865123905681e-08,-0.050219549791967744,-0.05020638189680172,0.06997774300861254,9.799996375465337
1727705187.5434055,3.969191946033242e-08,6.16536209034553e-07,0.9983467932516558,0.05747765134166294,-4.81077091463393e-08,-5.52552095449631e-08,-0.048080516887035005,0.02363395741651996,-0.00034860047705923583,9.800000008408794
1727705187.567914,4.001569781666334e-08,6.15810111912752e-07,0.9983077802563434,0.05815131880939711,-4.668499169370351e-08,-5.100683457406656e-08,-0.04461739335733043,0.01967500871549848,-0.0006788163428217349,9.800000011364054
1727705187.6448731,4.031949368963066e-08,6.151056197062281e-07,0.9982700239480493,0.05879591215706237,-4.5335620216282585e-08,-4.799648284425482e-08,-0.04201085071349504,0.013537690936273817,-0.0014667640886500675,9.800000018348642
1727705187.6753027,4.06051917795219e-08,6.144243221023487e-07,0.9982329418008857,0.05942216676603107,-4.393671674645996e-08,-4.7418443038098325e-08,-0.04180108150551361,0.020772729699087902,-0.00026057729503812014,9.800000008822217
1727705187.7182915,4.1072256997299994e-08,6.135451016326542e-07,0.9981720186572395,0.060436918926709104,-4.2257667054195104e-08,-6.000903184176564e-08,-0.05172636547281878,0.028015931030007206,-4.688090526539815e-05,9.80000000712054
1727705187.9350379,4.146854775778869e-08,6.129018428923767e-07,0.9981226812161785,0.0612463324734569,-4.100803898992178e-08,-6.452798112048449e-08,-0.05562675307567164,0.03921623883921892,0.0012566446391375627,9.800000002287828
1727705187.9375226,4.189703166940834e-08,6.122741598882447e-07,0.9980709659060314,0.06208338759301507,-3.982027573466228e-08,-6.553331054112523e-08,-0.05594386531315958,0.028278984476223283,-0.00038859439013037915,9.80000000794278
1727705187.987286,4.243340983233885e-08,6.114658379586752e-07,0.9980062261987519,0.06311554854510593,-3.8246407267380585e-08,-5.97335353114169e-08,-0.05128855451385733,0.02471192036754227,-0.000503364351369791,9.80000000828938
1727705188.2556672,4.283547927900047e-08,6.108803695689001e-07,0.9979539233092165,0.06393721100710753,-3.710048209317954e-08,-6.64882870177036e-08,-0.05736196912793162,0.04666424650572756,0.0022020906105055206,9.79999999808013
1727705188.2611372,4.3304410368019543e-08,6.09720043998244e-07,0.9978888500678567,0.06494492212541914,-3.693467984656284e-08,-8.100045126539977e-08,-0.0685072128749322,0.042717506450623006,-0.005028339812582807,9.800000258181925
1727705188.300268,4.405214118365274e-08,6.089920771309091e-07,0.9977986351682526,0.06631654134527587,-3.352412039905271e-08,-8.174863448621863e-08,-0.06875119933671725,0.03429298357356527,-0.0006364018880214547,9.8000000071594
1727705188.3506625,4.462714226919973e-08,6.085024163892568e-07,0.9977272465158153,0.06738205665900088,-3.1627530241238344e-08,-8.632017620251901e-08,-0.07286182190895855,0.048396403595026324,0.0037358769526033755,9.799999880195497
1727705188.3877912,4.523266483640667e-08,6.079850007834899e-07,0.9976526968337933,0.0684769778822596,-3.166492581931763e-08,-8.734662942737125e-08,-0.07319975393917483,0.036740468820337956,-0.0006811201912653756,9.800000006334326
1727705188.4247859,4.5875712034148975e-08,6.072985471617479e-07,0.9975683447428974,0.06969503258156634,-3.100751314400769e-08,-9.850895822969243e-08,-0.08237550609605135,0.048066131204609376,-0.001609227241757159,9.800000081292756
1727705188.657779,4.665499405029313e-08,6.05528261205875e-07,0.9974740255245261,0.07103216457020023,-7.985829090712956e-08,-6.066848051860162e-08,-0.04532019648827729,-0.14483577791661328,-0.16945382602167242,9.800002657688328
1727705188.6719413,4.696759360438316e-08,6.050696718107528e-07,0.9974299932119706,0.071647809741819,-2.61203463438518e-08,-4.6445031445212074e-08,-0.04065020300708887,0.016319345161129827,-0.0011643248553622428,9.80000002550359
1727705188.7011633,4.727611383941216e-08,6.045247150322229e-07,0.997381912824427,0.07231403715959345,-2.542094570797591e-08,-5.157728156502923e-08,-0.04499316915031501,0.025375988412063212,-0.001150921030241623,9.800000065137228
1727705188.7642448,4.773432586989308e-08,6.039513780170718e-07,0.997314144151124,0.0732427325797188,-2.522367490909524e-08,-5.558324444614354e-08,-0.04840662297251102,0.033466394820866364,-0.0026887520547650636,9.800000171742635
1727705188.7946975,4.81109205693211e-08,6.035732637937752e-07,0.9972604288891187,0.07397051420345907,-2.315173732038751e-08,-5.6461907050690455e-08,-0.048679856921236185,0.02402740556796463,-0.00030081347350858773,9.80000000508714
1727705188.8229437,4.842408329896017e-08,6.027128608780114e-07,0.9972116844136283,0.07462477114583654,-2.320336463930868e-08,-4.9761094599219577e-08,-0.04314775545359786,0.016702356830097183,-0.005681223733006688,9.800000222900016
1727705189.0689766,4.8687867760914564e-08,5.996135873178339e-07,0.9971363045854997,0.07562532695606411,-1.2011894868073236e-07,-6.637526186146017e-08,-0.060730807623335686,0.12181875632285699,-0.27494371908041204,9.800006873040648
1727705189.075476,4.919655873496133e-08,5.992688690462666e-07,0.9970643392424117,0.07656829246320673,-1.4968062702506652e-08,-7.432918765181031e-08,-0.06332321101144424,0.03185487277574784,-0.001054596767143973,9.800000038509905
1727705189.107506,4.972620887043913e-08,5.988330395523203e-07,0.9969861820419246,0.07757933240950782,-1.8425315930145437e-08,-8.225838908746125e-08,-0.07050004083173673,0.05419913236591056,-0.010118385584374235,9.800000557678622
1727705189.4052072,5.015102084362338e-08,5.964137916261112e-07,0.9968990171362946,0.07869148386154218,-4.483350527445159e-07,-8.908490310909909e-08,-0.0811274759440081,0.174545184957077,-1.1869400227311833,9.799992861534298
1727705189.4211211,5.106021987325638e-08,5.948738322608526e-07,0.9967556337474743,0.08048730702610363,-6.787656172074836e-09,-1.0789296625202569e-07,-0.09096374456669232,0.043150240397859606,-0.0025890350679909756,9.800000080990909
1727705189.4472764,5.1821689718476887e-08,5.942602752242599e-07,0.9966435892138077,0.08186303243016901,-1.669400646338588e-08,-1.0979539459576598e-07,-0.09270949904382397,0.046660465167168125,-0.03242709385352063,9.80000144155851
1727705189.4772775,5.2634342840711954e-08,5.94113344618642e-07,0.9965286282695622,0.08325078401329833,-4.91978322149903e-09,-1.102184023545134e-07,-0.092848451807562,0.04178599419465751,-0.0012443087141025876,9.80000000598328
1727705189.5387225,5.371995924776549e-08,5.939312572292674e-07,0.9963723113236875,0.08510121754203614,-4.714358291860733e-09,-1.1023291556698386e-07,-0.09285148921655212,0.04168046004239955,-0.0011706275016070797,9.80000000197289
1727705189.5667796,5.410964744930666e-08,5.914134452325134e-07,0.9963119870986277,0.08580457075955306,-1.185108370327435e-07,-4.227038789414319e-08,-0.029685169076388865,-0.18308479969935562,-0.3540592000013061,9.800002169346442
1727705189.811875,5.404421914250718e-08,5.884161872974587e-07,0.9962822122233385,0.08614960015590117,-5.804912927699145e-07,-2.2599450997554958e-08,-0.019055074065759,-0.06719114590494821,-1.621397555120025,9.799990498604593
1727705189.822394,5.382083824205847e-08,5.867105838235502e-07,0.9962969827128523,0.08597861499767934,8.356437533907648e-09,1.8894819451441883e-08,0.012875810072108914,-0.015349868769787786,-0.006313213306398766,9.800000220423497
