timestamp,orientation_x,orientation_y,orientation_z,orientation_w,angular_velocity_x,angular_velocity_y,angular_velocity_z,linear_acceleration_x,linear_acceleration_y,linear_acceleration_z
1727687360.0730457,6.368192681014786e-07,-1.560706805521916e-09,-1.4274793776469785e-06,0.9999999999987784,-8.62232003729206e-08,8.924867278601977e-10,3.6799145212591565e-14,3.034339183870432e-08,1.2459783328825235e-05,9.799930978980896
1727687360.0761476,6.351374974095518e-07,-1.543294126684402e-09,-1.4274793769253336e-06,0.9999999999987794,-8.282547721954275e-08,8.573466045320832e-10,3.356639924611794e-14,3.0013949215212973e-08,1.2427687109712428e-05,9.799933698682839
1727687360.1002662,6.339198009319779e-07,-1.5306870534867343e-09,-1.4274793764257332e-06,0.9999999999987802,-8.036477049845546e-08,8.318720429024861e-10,3.222005813028642e-14,2.9773467024022038e-08,1.2404414420483277e-05,9.799935667927208
1727687360.1369326,6.327382765278892e-07,-1.5184544641244837e-09,-1.4274793762036886e-06,0.999999999998781,-7.797814463102254e-08,8.071680082316076e-10,3.1188558347830797e-14,2.9540064949942324e-08,1.2381883509215997e-05,9.799937578636463
1727687360.229685,6.312173161504693e-07,-1.5027080941295371e-09,-1.427479375648577e-06,0.999999999998782,-7.490508514195246e-08,7.756119059813961e-10,2.4683249225549852e-14,2.9243741873702296e-08,1.235284572034743e-05,9.79994003828766
1727687360.2579267,6.30116060137197e-07,-1.491304737938453e-09,-1.4274793750934656e-06,0.9999999999987826,-7.268050388287551e-08,7.524951005127293e-10,2.884228318268733e-14,2.9021361378737063e-08,1.2331831560203282e-05,9.799941819204754
1727687360.5107388,6.290475166467118e-07,-1.4802399546297996e-09,-1.427479374538354e-06,0.9999999999987832,-7.052192828095895e-08,7.303113511933236e-10,2.3430991921741406e-14,2.881593985003445e-08,1.2311455496874745e-05,9.799943547212889
1727687360.5129108,6.280107135032951e-07,-1.4695033952643478e-09,-1.4274793740942648e-06,0.9999999999987839,-6.842614807558947e-08,7.083517660489525e-10,3.131528328605843e-14,2.859967282197054e-08,1.2291625722792793e-05,9.799945223953197
1727687360.5622394,6.266760579697529e-07,-1.455680699853469e-09,-1.4274793735946645e-06,0.9999999999987847,-6.572990152958464e-08,6.805527952375847e-10,2.7761420623970494e-14,2.8339706698756753e-08,1.2266174698706787e-05,9.79994738233361
1727687360.8700943,6.257097015631498e-07,-1.4456720390228871e-09,-1.4274793733726199e-06,0.9999999999987854,-6.377713969099176e-08,6.603455965268787e-10,2.717052718733664e-14,2.814927481906358e-08,1.2247724254888123e-05,9.799948945136046
1727687360.8723214,6.24772054272947e-07,-1.43596211185325e-09,-1.4274793728175084e-06,0.999999999998786,-6.1882361569388e-08,6.408038601050337e-10,1.9326942600175862e-14,2.7975705819330292e-08,1.2229813588218498e-05,9.799950461523286
1727687360.9071155,6.235650390287991e-07,-1.423465641067825e-09,-1.4274793724844415e-06,0.9999999999987867,-5.944384597448483e-08,6.152900015153542e-10,2.439998026618213e-14,2.772606495086226e-08,1.2206795298569088e-05,9.799952413524519
1727687360.936286,6.226910927888793e-07,-1.4144199142639638e-09,-1.4274793720958634e-06,0.9999999999987872,-5.767877375659837e-08,5.968146231925355e-10,2.629206918228839e-14,2.7549581198398923e-08,1.219012364864414e-05,9.799953826874118
1727687360.9671009,6.218430983046312e-07,-1.405640510663535e-09,-1.4274793718183076e-06,0.9999999999987879,-5.596600421478679e-08,5.79538505918116e-10,1.56689837902758e-14,2.739488025771423e-08,1.2173930118222326e-05,9.799955198275503
1727687361.0274508,6.207514908611608e-07,-1.3943398583451298e-09,-1.4274793713742184e-06,0.9999999999987885,-5.3760237466439933e-08,5.564445896285924e-10,2.2766681735090756e-14,2.7168959943190275e-08,1.2153085720493744e-05,9.799956963645279
1727687361.2779753,6.199611043877837e-07,-1.3861552081931444e-09,-1.4274793709301292e-06,0.999999999998789,-5.216368411240963e-08,5.40019191981248e-10,2.1597239045711624e-14,2.7014259576940854e-08,1.2138004421207596e-05,9.799958241865005
1727687361.280775,6.191941993131987e-07,-1.378211218132476e-09,-1.427479370819107e-06,0.9999999999987894,-5.0614210481017795e-08,5.242799802898231e-10,1.82697660643402e-14,2.6864323255757957e-08,1.2123381719765665e-05,9.799959482114218
1727687361.3043199,6.184500800846921e-07,-1.3705012762798426e-09,-1.4274793704305289e-06,0.9999999999987899,-4.910961327935147e-08,5.08965124841718e-10,1.3080458286392884e-14,2.672415084987572e-08,1.2109143190350058e-05,9.799960685561352
1727687361.3459284,6.17492190565994e-07,-1.3605770523788058e-09,-1.4274793699864397e-06,0.9999999999987904,-4.717490750431454e-08,4.88795828668346e-10,1.596156835047879e-14,2.6529279930979112e-08,1.2090876817530436e-05,9.799962234693073
1727687361.416446,6.167986327401553e-07,-1.3533945251553704e-09,-1.4274793697088839e-06,0.9999999999987907,-4.577328006940702e-08,4.740822366803494e-10,1.5136552432262276e-14,2.6393837105423056e-08,1.2077644273242054e-05,9.799963356368956
1727687361.4498646,6.161256798386751e-07,-1.3464247351188717e-09,-1.4274793695978616e-06,0.9999999999987913,-4.4413722873760715e-08,4.598464908715999e-10,2.059791919692628e-14,2.625209803606058e-08,1.2064804891628157e-05,9.799964444707534
1727687361.6850598,6.152593927617528e-07,-1.3374589390979917e-09,-1.4274793691537724e-06,0.9999999999987919,-4.266381349740218e-08,4.4132383404016744e-10,2.0187691924848417e-14,2.6083035907380472e-08,1.204827636443423e-05,9.799965845719113
1727687361.6877317,6.14632151934446e-07,-1.3309657806778479e-09,-1.4274793688207055e-06,0.9999999999987922,-4.139674137483301e-08,4.283550949555793e-10,1.9916240769057392e-14,2.5956028099112493e-08,1.203630066086079e-05,9.799966860140213
1727687361.7052631,6.140235359049942e-07,-1.3246661430630175e-09,-1.4274793685986609e-06,0.9999999999987925,-4.016726707137484e-08,4.157089836791261e-10,1.4154778362780221e-14,2.584494751543536e-08,1.2024665309734807e-05,9.799967844451297
1727687362.0136192,6.132418030377838e-07,-1.310664183962139e-09,-0.0001405015012487798,0.9999999901294763,-3.827653402331782e-08,-1.548541070285005e-08,-0.027814803739956387,0.38946738497092515,0.054191391155043116,9.7999690872899
1727687362.0179248,6.126780434451892e-07,-1.7963207026148036e-09,-0.0013594095595018119,0.9999990760022099,-3.733224830926613e-08,-1.1474909698941301e-07,-0.10734393585410615,0.3624867090555131,0.04824268668009033,9.79996996751648
1727687362.0401728,6.121453779233529e-07,-3.00544291448203e-09,-0.003651238244353594,0.9999933342072376,-3.2612186619624785e-08,-1.99614461907201e-07,-0.16851328049690406,0.15818945074840132,0.026381390273784194,9.799970942329987
1727687362.068812,6.116180587502116e-07,-4.581417436392814e-09,-0.006235656521356547,0.9999805581046932,-3.458031830471935e-08,-2.1192556817871676e-07,-0.1727462890453504,0.003963017398329292,-0.0036667094886175065,9.799971785264093
1727687362.1101155,6.109289578746668e-07,-6.703150077611212e-09,-0.009692143883419713,0.9999530300701976,-3.3242445299035744e-08,-2.119347545866432e-07,-0.17283821490636359,0.0006133119987660634,-0.0041678951715515816,9.79997289962507
1727687362.164986,6.104160312061786e-07,-8.35394118952261e-09,-0.012637138357196431,0.9999201481787274,-3.306001484751628e-08,-2.5391671293313503e-07,-0.21966365406948768,0.32481568742617384,0.03459797225558614,9.79997365553367
1727687362.4236546,6.098990412620525e-07,-1.056422990268391e-08,-0.01660038780139128,0.9998622040683762,-3.213830647501272e-08,-3.3611080705643195e-07,-0.2862099757637135,0.3086045358346399,0.024463821186527325,9.799974449891081
1727687362.4266129,6.092962299143762e-07,-1.4458447754054263e-08,-0.02336596497040022,0.9997269785699646,-1.0841652012772562e-08,-4.3716093430345154e-07,-0.3632008406498313,0.15928706044213511,0.04716959631818124,9.799975810300642
1727687362.4587452,6.088440417592297e-07,-1.7825525933623287e-08,-0.02889857028017251,0.999582349101559,-2.5519863250907913e-08,-4.521921113521262e-07,-0.3699902895261523,0.012153489952298506,-0.017203193251368102,9.799976219612654
1727687362.4913838,6.08359314969645e-07,-2.122055218678624e-08,-0.034450831837763984,0.9994063939085618,-2.4990345572530634e-08,-4.527765143338503e-07,-0.37039862536289714,0.003288575649953729,-0.019110215136609217,9.799976943247309
1727687362.604501,6.077004338457345e-07,-2.574186861668569e-08,-0.04185383380930746,0.9991237443855954,-2.404073605344912e-08,-4.524003860139156e-07,-0.3704241286723925,0.0027343801133491354,-0.019198498723153542,9.799977853008814
1727687362.6255953,6.071968126062621e-07,-2.9126978111724698e-08,-0.0474046596949495,0.9988757671696898,-2.3351574843156487e-08,-4.5208775793820184e-07,-0.3704247092532496,0.0027217987652933765,-0.019200087048684845,9.799978511490727
1727687362.8630662,6.066059893475188e-07,-3.2689295128377525e-08,-0.05361084391795767,0.9985619046478966,-2.714744043118725e-08,-5.175778558043713e-07,-0.4361994177599918,0.3106850735508057,-0.0007326953028709752,9.799979127810108
1727687362.864528,6.059684611514394e-07,-3.6849363845890916e-08,-0.06079970252531225,0.9981499868118343,-2.6294597740567343e-08,-5.974503625222349e-07,-0.501965792920314,0.3116019601093954,-0.015167379720544964,9.799979765304839
1727687362.8849893,6.05411055525705e-07,-4.322252729344148e-08,-0.07142505437246721,0.9974459692672688,-1.4656745845284193e-08,-6.545649567902008e-07,-0.5378757147119664,0.02652379114947498,-0.03405141389834094,9.799980505228106
1727687363.218709,6.048062567250355e-07,-4.812895929731373e-08,-0.0794816206545273,0.9968363315899764,-1.5425655217352983e-08,-6.562687123541366e-07,-0.5387772951174191,0.0069884770794952054,-0.04041114795576034,9.799981169844344
1727687363.2205343,6.132074495816507e-07,-5.3755312728109535e-08,-0.08733454885052971,0.9961790384146292,5.085475699199382e-07,-6.447964789678945e-07,-0.5210201966830109,-0.021320995010654584,1.44545232187297,9.799977572936077
1727687363.2506394,6.157685455429946e-07,-6.069945535911062e-08,-0.09811642932532244,0.9951749425583755,2.5221721598499696e-08,-6.834841966771416e-07,-0.5495312370609402,0.07662580482541982,0.14006610977182096,9.799979156495981
1727687363.3082466,6.147636207078527e-07,-6.58056991418777e-08,-0.10633423154595362,0.9943304436660627,-3.748582785281006e-08,-6.864203157736884e-07,-0.5509555161673614,0.04824762340767534,-0.03924898512709741,9.799982921648846
1727687363.3384352,6.158948191209212e-07,-7.123335834674754e-08,-0.11476995856944777,0.9933920961078675,2.5554203751484044e-09,-7.105304898771842e-07,-0.5699570266909091,0.09188715214454587,0.0805271735727685,9.799980687834182
1727687363.4043164,6.157294903168866e-07,-7.848433262109802e-08,-0.12619872902339008,0.9920049802256516,3.56933526652154e-08,-7.256728167133882e-07,-0.5806402378239491,0.07590401855609821,0.16976070232377316,9.799981135843204
1727687363.698964,6.14782114958302e-07,-8.389062223054725e-08,-0.13479809178129692,0.9908730869550024,-2.2353633682236052e-08,-7.225515882205116e-07,-0.5766279636872649,0.038426000215365325,0.004745443651849253,9.799984478612663
1727687363.7002494,6.226533641886067e-07,-9.046782081499289e-08,-0.14315356705290183,0.9897004881476185,5.374044410352163e-07,-7.080431303255966e-07,-0.5556629220957654,-0.02088245966213706,1.5850323539097302,9.799981808032875
1727687363.7170413,6.259707699075374e-07,-9.621833510167031e-08,-0.15085170067420228,0.9885564042599186,2.470310604331978e-07,-6.522604557531979e-07,-0.4995260881597655,-0.19339038706129286,0.7984705871389625,9.799983809236489
1727687363.7601252,6.242101644323418e-07,-1.0232058309911035e-07,-0.1603441291890163,0.9870611735015292,-7.896542744621033e-08,-6.09890659797152e-07,-0.4750004445938943,0.048173707355939135,-0.059951112779817885,9.799985955098023
1727687363.8317454,6.235452695061399e-07,-1.067924757811215e-07,-0.16714359139600232,0.9859325635431897,-7.07250891043877e-08,-5.850846486468719e-07,-0.4554793758990152,0.042109783913738395,-0.03304396107101125,9.79998561598812
1727687363.8608143,6.218488290925881e-07,-1.1094949461388632e-07,-0.17379878768202628,0.9847811845277401,-5.433855029151052e-08,-5.736706512678631e-07,-0.4482338897299095,0.06089166266219475,0.01136418309722914,9.799986975371901
1727687364.114652,6.207851709901466e-07,-1.1647664827451974e-07,-0.18227923747462094,0.9832468050216446,-5.641761261919083e-08,-5.459662878725643e-07,-0.426628070422445,0.058181457105793144,0.009848997330661717,9.79998745355566
1727687364.1164436,6.262410022483464e-07,-1.2166787611800707e-07,-0.18831536588206138,0.982108610578432,1.8734337760744328e-07,-5.210489294007095e-07,-0.3926590390764241,-0.2143924316270002,0.6804468181771465,9.79998013629806
1727687364.1396646,6.274881380452346e-07,-1.2559448350794952e-07,-0.19338387101075472,0.9811231718966209,1.217770907449054e-07,-4.2978193226047655e-07,-0.31960180420640955,-0.2597487935416252,0.5187557221486548,9.799987325632694
1727687364.4877763,6.266165005885812e-07,-1.2932814832538047e-07,-0.19892528774620216,0.9800146579999103,-8.866443533548606e-08,-3.578389023443628e-07,-0.27636983901955947,0.05958271323089482,-0.00669584847170033,9.799988349808448
1727687364.4898744,6.315724107249688e-07,-1.330262682839654e-07,-0.20267094773036398,0.9792468978483717,2.8565093039786795e-07,-3.217837642615988e-07,-0.23895389692220048,-0.15121615657150636,1.0264265571942832,9.799987292969732
1727687364.4958565,6.308948528705454e-07,-1.351393972227565e-07,-0.20582824851050868,0.9785881320119716,-9.811771216956245e-08,-2.7714624437099143e-07,-0.2121723272528041,0.045617185652194615,0.0031908906536461694,9.799988725093149
1727687364.5251017,6.292469223409105e-07,-1.3694363903885597e-07,-0.20899461842870887,0.9779167906664776,-9.916181272450514e-08,-2.807028790101833e-07,-0.21621466828381442,0.07131266975398073,-0.003375368095379415,9.799989476237316
1727687364.5689821,6.267524433737627e-07,-1.3929585238968426e-07,-0.21322302346286803,0.977003552841514,-9.620415262033738e-08,-2.800445248592923e-07,-0.21630316996883653,0.06820671561643382,-0.0063699810915732865,9.799990002679111
1727687364.64182,6.215309697411993e-07,-1.403058098322425e-07,-0.21636890638852885,0.976311679919802,-7.885446548251656e-07,-2.757217194409339e-07,-0.21160630443415857,0.004920186704730353,-1.9421884691751703,9.799979046841765
1727687364.6717029,6.097926709035971e-07,-1.3971524579276275e-07,-0.21933301396808008,0.9756500545704319,-7.650655117060801e-07,-2.5219724128136316e-07,-0.19797907644371743,-0.00821797257957291,-1.9402448708169233,9.799993143808628
1727687364.9499125,5.947271603482048e-07,-1.3872572687051284e-07,-0.22298416177909597,0.9748220676591708,-7.347943955198699e-07,-2.2358171241474927e-07,-0.18087044297052424,-0.023134844572796815,-1.9378813304634566,9.799993448877766
1727687364.9798129,5.838509471076761e-07,-1.3785213473283876e-07,-0.22550989813719408,0.9742408767044175,-7.128698870990037e-07,-2.040385640064701e-07,-0.1688113512646226,-0.03253856116770715,-1.9362724953461865,9.799993669985966
1727687365.0102897,5.754399262182184e-07,-1.3737297229328031e-07,-0.22796109482796334,0.9736702415317446,-2.702232091617222e-07,-1.9709856341724304e-07,-0.1767023568980563,0.22112300772720953,-0.7311418511255076,9.800000546009851
1727687365.1358387,5.720163177406727e-07,-1.3893713170806882e-07,-0.23218817813423032,0.9726708846955172,-1.3840470818840112e-07,-2.71956494395668e-07,-0.24135136643450283,0.23436553876250263,-0.3894623972472718,9.799992347933003
1727687365.1632862,5.691679386121213e-07,-1.4053952573651403e-07,-0.2361428281359793,0.9717183566855149,-2.156682903055931e-07,-3.241996169049656e-07,-0.2839546244863281,0.1703344689169519,-0.6284756211803822,9.799991098112534
1727687365.201364,5.666692663035543e-07,-1.4258577481971087e-07,-0.2407092184060885,0.970597275997614,-1.239102043187005e-07,-3.727195263197118e-07,-0.32840814654704453,0.21594871251933995,-0.38646954511198767,9.799992749975495
1727687365.4034033,5.655312426508322e-07,-1.4537746595375262e-07,-0.2460209285857251,0.9692645163718088,1.9265521108410256e-08,-4.361755835486846e-07,-0.38702816471174917,0.31197007665788323,0.008723436204860309,9.799992494002947
1727687365.4170697,5.640142136930194e-07,-1.499169108704056e-07,-0.25422304166062926,0.9671456173133792,1.9542184009440417e-08,-5.022209948168825e-07,-0.43258994210348056,0.03839981526409809,-0.03969622502189887,9.79999324512426
1727687365.4464526,-5.634145644569103e-07,1.5366825808911396e-07,0.2605116598137516,-0.9654707013165873,2.5412028827614967e-08,-5.058560476998792e-07,-0.43408203963575137,0.005808372658491981,-0.026365811626514538,9.79999305048403
1727687365.6911566,-5.627114617652172e-07,1.574553797100825e-07,0.26711026267368176,-0.9636659730290653,1.8297771763665807e-08,-5.433591878866056e-07,-0.47798810935409397,0.3114873721186323,-0.009663819989374885,9.799993231808298
1727687365.7043478,-5.616503242860941e-07,1.6332153481274443e-07,0.27734932540215457,-0.9607691458923042,5.8917349171723006e-08,-6.453382863755053e-07,-0.5627076388223977,0.2706403235687545,0.07866109937634844,9.799994211096298
1727687365.7344851,-5.607024474518447e-07,1.6823943032867438e-07,0.28558897591095384,-0.9583521987441724,2.79925987297025e-08,-6.713884586455629e-07,-0.5741869093049692,0.022462488000983105,-0.04272666575944381,9.799993702631571
1727687365.7650836,-5.596382159700171e-07,1.7318969748158118e-07,0.2938407883188601,-0.9558543775700394,2.6760820795809708e-08,-6.734079919654297e-07,-0.5748773807192221,0.007484808055080798,-0.04611614702966026,9.799993922151511
1727687365.8279612,-5.580781331016507e-07,1.7975447256246712e-07,0.3049161981283881,-0.9523791850510939,1.417093517842498e-08,-6.854528587104842e-07,-0.596840648189446,0.3141490364732665,-0.03961635210163827,9.799993955985348
1727687365.8584836,-5.568674538536746e-07,1.8498456868157174e-07,0.31370188314874814,-0.949521526090159,2.7110133813982637e-08,-7.255016343381176e-07,-0.6193051249077431,0.03879513238281952,-0.047989875765860085,9.799994307828904
1727687366.0702221,-5.553679944888708e-07,1.90294719713523e-07,0.3228325024816488,-0.9464561137956116,1.2630770610164196e-08,-7.656451265518288e-07,-0.6640190926343729,0.315595554081032,-0.05953069819949984,9.79999452517986
1727687366.0913117,-5.5359370971677e-07,1.9606042586835933e-07,0.33286234006063786,-0.942975430522456,1.6451934303302877e-08,-8.433735952322277e-07,-0.7295500877986186,0.31338748022410357,-0.06980443686130992,9.79999478487158
1727687366.1328113,-5.51550319773587e-07,2.046157703645832e-07,0.34692887366870356,-0.9378914418068961,3.0917067173867e-08,-8.837296162846398e-07,-0.7507680636706171,0.02219556373102326,-0.07512720251769603,9.799994868093906
1727687366.2118692,-5.496314232910359e-07,2.1099366359726126e-07,0.35747446813832584,-0.9339229115022686,2.9225984896847505e-08,-8.854634416781217e-07,-0.7512498979045592,0.011774692780013526,-0.07889067749023189,9.799995075817828
1727687366.243349,-5.476244690235759e-07,2.1735071894995958e-07,0.3679760344092823,-0.9298352747127157,2.8303117143827504e-08,-8.861682903254597e-07,-0.7512788785118439,0.011146064695115499,-0.07901172416432262,9.79999522567924
1727687366.2849524,-5.447637271855319e-07,2.2594862884056332e-07,0.38239955684536464,-0.9239970665127248,3.300863092309286e-08,-9.369271140754802e-07,-0.797181956538169,0.1068666266631651,-0.06585453093499323,9.799995172275883
1727687366.48636,-5.421998675012253e-07,2.3261437821857348e-07,0.3937595431503433,-0.9192134801979813,6.723268858108558e-09,-9.825105594448733e-07,-0.8436574723723975,0.3208072343865576,-0.12335173364984661,9.799995610981066
1727687366.4946404,-5.395058406385937e-07,2.398015984197909e-07,0.40594704763363476,-0.9138965994669128,6.701376913949346e-08,-1.0589781310561264e-06,-0.9063393160589872,0.27716500345282524,0.011872503004312647,9.799996776238192
1727687366.554155,-5.35932004755211e-07,2.501136189312026e-07,0.42271434006200603,-0.906262978779114,3.490912708910969e-08,-1.0937051843543007e-06,-0.9235284849407014,0.025719086964428792,-0.11619735079712079,9.799995863060834
1727687366.839436,-5.3850437458517e-07,2.6045099649543e-07,0.4351300169982141,-0.9003676295307246,6.552464008274713e-07,-1.0899521917018058e-06,-0.9088323326867509,-0.08624918646165713,1.6133907345354972,9.799993839570394
1727687366.8430629,-5.435316909031893e-07,2.7206418135600434e-07,0.4471686451098665,-0.894449664782897,6.356285124085485e-07,-1.0843018845375483e-06,-0.8871483745672535,-0.03614609896515305,1.6235486686288945,9.799993921904628
1727687366.8669171,-5.481589692999025e-07,2.835918060537133e-07,0.45884543218757495,-0.8885161052902848,6.165147902329231e-07,-1.0781251919017162e-06,-0.8663156792570903,0.011703542389601116,1.6330626419863918,9.799994001704153
1727687366.9115047,-5.500410185774088e-07,2.966407194124802e-07,0.47344869323009187,-0.8808213978317783,3.429107837168242e-07,-1.0163890979468732e-06,-0.7962554379761246,-0.12320181319264847,0.9282932280649382,9.799995065889155
1727687366.9964688,-5.495100679937368e-07,3.0486562231539584e-07,0.48346204556589767,-0.875365324020116,1.1366876763860401e-07,-9.54850039642488e-07,-0.743085520381289,-0.06340199279608327,0.3454718356900757,9.799992835058552
1727687367.041462,-5.499565129303866e-07,3.1315696517041856e-07,0.49272285132424365,-0.8701862971700409,2.917702727288358e-07,-8.935974632615717e-07,-0.6895423848978018,-0.0847705062949996,0.8744389607133076,9.79999534623823
1727687367.2856483,-5.482579161640366e-07,3.223191294516422e-07,0.5042319893675017,-0.8635682375458741,2.8524907107923396e-07,-8.351783150145601e-07,-0.6404248853014864,-0.08045231100895218,0.8901426995662873,9.799995459743466
1727687367.2967207,-5.473514015795505e-07,3.2883110522920997e-07,0.5119398698789199,-0.8590212858992183,1.3333597907454962e-07,-7.565269914321984e-07,-0.5731048704854725,-0.1642166356346724,0.4948521409609342,9.799995703313957
1727687367.3231757,-5.45907985305145e-07,3.3426973783448075e-07,0.5187495750460395,-0.8549262414905414,1.233650746665807e-08,-6.742914431173573e-07,-0.5133018985176486,-0.03086237061529374,0.2076522094290499,9.799993444255229
1727687367.4358754,-5.423524831593861e-07,3.398702250191851e-07,0.5272534988679989,-0.8497080368756338,2.0942079072728841e-07,-6.375081733382414e-07,-0.48465829450568587,-0.07445914260197468,0.7500604071017657,9.800001979227119
1727687367.4682274,-5.3913760955345e-07,3.4339581230501304e-07,0.5332733150352397,-0.8459430072238421,-9.260372015763204e-08,-6.100446956769469e-07,-0.47024244108977736,0.11212305067413252,-0.05321261230131762,9.799996657416626
1727687367.5166705,-5.387789597305841e-07,3.4839686214518046e-07,0.5387037900094946,-0.8424952383420303,7.925744337239385e-08,-5.420117605015027e-07,-0.407847690377749,-0.14037870108650288,0.4094446636216665,9.799995133772699
1727687367.7102764,-5.328039085740394e-07,3.4920549173260117e-07,0.543663827611127,-0.8393030695444958,-7.90089605712514e-07,-5.050240210122048e-07,-0.38837802730859355,0.07061153063482319,-1.9677585134312299,9.799985750019184
1727687367.728302,-5.172606879478476e-07,3.448698375142996e-07,0.5499578286055318,-0.8351924249866627,-7.589483620064598e-07,-4.651475937641434e-07,-0.36825847370202275,0.03126696847715189,-1.9644680404839532,9.799999934747197
1727687367.7598908,-5.062525043603539e-07,3.416284982315028e-07,0.5544389336410469,-0.8322244101578645,-7.022278294684598e-07,-4.3669197384034545e-07,-0.35401027960371284,0.023283993960373377,-1.8648269215281967,9.800000519695624
1727687368.0135798,-4.98944773942198e-07,3.4073569392966473e-07,0.5590823687149192,-0.8291121184687569,-7.23547663970203e-07,-4.570586043605767e-07,-0.37412797444402623,-0.00456397060846169,-1.9657443909463548,9.799990440651554
1727687368.0263515,-4.873982987620823e-07,3.381302463001317e-07,0.5648782720447163,-0.8251742469148097,-2.986578877009032e-07,-3.964322786118576e-07,-0.32240715288819094,-0.3077870547030755,-0.8910470288107779,9.800002297786504
1727687368.0622942,-4.829263152967367e-07,3.382086363400386e-07,0.5682154396203506,-0.8228798297301398,-2.3638679543103525e-07,-3.008177129123714e-07,-0.24381509172653182,-0.34493135169113726,-0.7340150258455248,9.799998639044166
1727687368.0875585,-4.790776475305865e-07,3.3782491639842517e-07,0.5705901109803919,-0.8212350000158544,-2.203814078888991e-07,-2.0765606926417446e-07,-0.1673944242897399,-0.34015710441214697,-0.7004379175401684,9.799998674719689
1727687368.146577,-4.748843574511469e-07,3.366668463616255e-07,0.5723442826164239,-0.820013428033927,-1.9685542055440425e-07,-9.230411156008728e-08,-0.07138817056700617,-0.3252832974685014,-0.6516435693758202,9.799998696813004
1727687368.1755352,-4.7404915585079043e-07,3.3664600725793827e-07,0.573264509019185,-0.8193703696733574,2.521344501521132e-08,-9.434627423445663e-08,-0.10108545825091776,0.3655202057133863,0.04879818069598466,9.79999782250895
1727687368.3939507,-4.737865782792635e-07,3.376708604613888e-07,0.5751202532185254,-0.8180688811692574,2.3875099841697396e-08,-1.8294698428955805e-07,-0.1755245398744253,0.3414033360041612,0.040680418986005724,9.79999789500197
1727687368.3960555,-4.728572065869599e-07,3.3901984586477574e-07,0.5778297078141218,-0.8161573553960708,-4.524718189206555e-08,-2.638751781469504e-07,-0.24176080639920525,0.277134585859548,-0.1632024500612699,9.79999684979848
1727687368.4298668,-4.702568204391771e-07,3.408019726592296e-07,0.5822882219684741,-0.8129824269665707,2.1020162162641967e-08,-3.2242515297763865e-07,-0.28242068383999225,0.028312155021887428,-0.02630737112828581,9.79999893867667
1727687368.46332,-4.691884883229805e-07,3.4298092559943874e-07,0.5858234908788462,-0.8104386698166519,2.439604902563727e-08,-3.3593017682634144e-07,-0.30502193565226426,0.30888285993859693,0.02189183102335537,9.799998093632787
1727687368.4964406,-4.6797463061586833e-07,3.453934343743881e-07,0.5896796308517662,-0.8076372533248984,2.688484699170795e-08,-3.670658850884884e-07,-0.31938549221448576,0.014249190229974305,-0.012372155939866649,9.79999820037716
1727687368.5358381,-4.661102402045981e-07,3.4875583275599864e-07,0.5953590460084154,-0.803459772692828,2.2148072145991155e-08,-4.308867782610443e-07,-0.38540559084653875,0.30989454749956125,0.009001247677233573,9.79999825537549
1727687368.7966852,-4.670642985718776e-07,3.537420455343407e-07,0.600192692195535,-0.7998554445865406,6.795818712459721e-07,-4.673740515266018e-07,-0.398934312654283,-0.10786020447524552,1.7729640809875322,9.80000906201851
1727687368.8275182,-4.72979671228617e-07,3.625147627712958e-07,0.6047905092105038,-0.7963846055572298,6.59425955248237e-07,-4.5037408878792295e-07,-0.3766550983489049,-0.08510191842735317,1.7772920022443732,9.799996123764627
1727687368.8929193,-4.799906584112437e-07,3.7343735991818593e-07,0.6105392852737315,-0.7919859728158519,6.001393222891523e-07,-4.3187261664273e-07,-0.35316326499403067,-0.039218751206675194,1.6893158342401697,9.799996263095101
1727687369.1717293,-4.826197330932678e-07,3.796392761388173e-07,0.6148201531505149,-0.7886673438653334,5.881514665587736e-07,-4.4644995020506594e-07,-0.3608662533626018,-0.02429064284939926,1.688100186545699,9.80000413653498
1727687369.1737363,-4.871908060367047e-07,3.874351223715909e-07,0.6189546209557134,-0.7854267484604669,5.198166467300465e-07,-4.337415403181032e-07,-0.3459600191603976,0.022146149262347727,1.5539872663499565,9.799995480001874
1727687369.194186,-4.868467262960061e-07,3.9145550745556655e-07,0.6232840179301861,-0.7819955453788807,1.0189632573206309e-07,-4.7090441166507045e-07,-0.3821488834714304,0.28874083768731873,0.44918363261527344,9.799997559489716
1727687369.2338011,-4.84605495683624e-07,3.962311808913889e-07,0.6297715252111316,-0.7767804233069041,-2.4768999818838008e-08,-5.409006265623768e-07,-0.4310725797548228,0.18961728882974646,0.08268691832598928,9.799996388178812
1727687369.318524,-4.811285154921407e-07,3.987307231743941e-07,0.6348158417898703,-0.772663475914468,-6.023712823991314e-08,-5.479489390350926e-07,-0.4346064468548777,0.11943484372019103,-0.031605987247167885,9.799998862613611
1727687369.3486733,-4.791230203738769e-07,4.024536693639376e-07,0.6398558519504897,-0.7684949503570739,2.7679578094943185e-07,-5.501252287157071e-07,-0.43856281010393605,0.16406741557212637,0.9042434427764682,9.800004169527814
1727687369.6149805,-4.775314031062287e-07,4.0843114510986164e-07,0.6465501976371363,-0.7628714452219227,5.584775987590132e-07,-5.498586315294633e-07,-0.4322438768476375,0.03988559878516975,1.6751816467538918,9.800008394836654
1727687369.6169765,-4.792132468525528e-07,4.15304163531685e-07,0.651460535363305,-0.7586825231041991,1.7376557657406593e-07,-5.530654765130398e-07,-0.4369698560117698,0.27602932625407534,0.6813458487829521,9.7999931311603
1727687369.6392758,-4.781517003986166e-07,4.201500087647336e-07,0.656644396660141,-0.7542003290468879,1.3426920645301742e-07,-5.943624605056535e-07,-0.46582046323356263,0.2734752618175632,0.5775781457711291,9.799997386065966
1727687369.6794941,-4.740290521487866e-07,4.246783774316335e-07,0.6637376913553188,-0.7479654250524597,1.3992502753394723e-07,-6.114417876625196e-07,-0.4790408076494098,0.28153370389518595,0.5902833337632778,9.800002394519856
1727687369.7118864,-4.7049748985998544e-07,4.2782908496803854e-07,0.6691054269589541,-0.7431674963382557,-5.9404055407126116e-08,-6.183253688516399e-07,-0.4790598362568305,0.1582018713806042,0.02165262199576538,9.799998638805308
1727687369.7419422,-4.677488739936158e-07,4.315397354073392e-07,0.6741182069520848,-0.7386234785432298,9.940286694093103e-08,-5.643612607876072e-07,-0.42504377076604816,-0.19173117530989514,0.4226664329016908,9.799999382976885
1727687369.9936595,-4.6538286193064855e-07,4.347143418510745e-07,0.6783902502790562,-0.7347017546773069,-5.8135996598460565e-08,-4.890870334333835e-07,-0.3757122661650128,0.031853695433853864,0.03602767268127703,9.799997395534508
1727687370.0346282,-4.6944796675663467e-07,4.450774744878623e-07,0.6836824086922146,-0.7297796681494991,4.1064282963773383e-07,-4.63634699227086e-07,-0.34954201153823733,0.0027237850094695227,1.377563496556111,9.799994970822842
1727687370.0722444,-4.68673745072786e-07,4.488262915481342e-07,0.6870744944372311,-0.7265869797164013,7.635860999594004e-08,-3.9498344816959264e-07,-0.29687500259792204,0.01380496512432121,0.4819340079773914,9.799997411157829
1727687370.3572066,-4.6561007076684576e-07,4.499473835381447e-07,0.6902699525043867,-0.7235519281082543,-1.0665145115601881e-07,-3.838521930222548e-07,-0.29344117873327374,0.1334520343880954,-0.010481592451256069,9.799999043860199
1727687370.3641484,-4.649281842452988e-07,4.540464301515909e-07,0.6937233517033954,-0.7202415645469128,5.912154362987523e-08,-2.8336402905134446e-07,-0.207613333562603,-0.1573896080850756,0.42905292170594245,9.799997580792121
1727687370.382252,-4.631372559387958e-07,4.5510426065333513e-07,0.6959341821733523,-0.7181055730756345,-8.722450378502009e-08,-2.683462352603068e-07,-0.20672893534269793,0.11473747434601964,0.06358599766515051,9.799996112409744
1727687370.4136543,-4.605741824684692e-07,4.5542992834971746e-07,0.6981611226726553,-0.7159406726733982,-1.0851103980595809e-07,-2.6884558069252406e-07,-0.20709292796462556,0.1024518671904223,-0.00552839001949255,9.799999181740585
1727687370.4984593,-4.5764852598982e-07,4.5635950471303725e-07,0.7011563588130747,-0.7130075458896441,-1.0336270590136406e-07,-2.7316026441527627e-07,-0.21084934672162675,0.10771329887665926,0.0008317372477538168,9.799998933646924
1727687370.5309138,-4.5565307483395403e-07,4.5727585966732584e-07,0.7033621926253856,-0.7108316439107035,4.9700084417424204e-08,-2.646019837711836e-07,-0.19785024960015074,-0.07882345693878802,0.39163889787336487,9.80000171974282
1727687370.755752,-4.533310917929426e-07,4.57631280923633e-07,0.705421833951235,-0.7087877229357609,-1.0103788287512591e-07,-2.4877893353195636e-07,-0.1929202034628624,0.09298736606231117,-0.004369916976621233,9.799999216419577
1727687370.7623491,-4.5084216274565246e-07,4.57714373492662e-07,0.7073974139241577,-0.7068160289445912,-9.888122438857142e-08,-2.3804899194201653e-07,-0.18525972940348306,0.08677758720214862,-0.007628180909944103,9.799999389477978
1727687370.7979877,-4.4721498757804565e-07,4.5769938952538736e-07,0.7102884009611407,-0.7039107808946076,-9.315072197207918e-08,-2.650876103866043e-07,-0.20688226188275144,0.10737226007385889,-0.0060056386578901865,9.799999358462157
1727687370.8486464,-4.448487908537289e-07,4.581374817870457e-07,0.7124705783298276,-0.7017019844734325,-9.011599987477205e-08,-2.6491371269136997e-07,-0.20700998454049205,0.10296034211304177,-0.005740301622937465,9.799999339161555
1727687370.8877273,-4.424255542558683e-07,4.586890217452096e-07,0.7148599629773774,-0.6992676407010239,-8.732388208619445e-08,-2.935024946441785e-07,-0.22983472055427817,0.1319364932715462,-0.004479176140151747,9.799999350862487
1727687370.921137,-4.383937169942031e-07,4.587953654033767e-07,0.7180944005537354,-0.6959457104494349,-1.083437886713648e-07,-2.976887734559381e-07,-0.23377488033748658,0.12537056479440845,-0.07859150110684478,9.800002666363305
1727687371.1752455,-4.359389518869658e-07,4.5948520806803403e-07,0.7205330316106131,-0.6934206157575774,-7.950331846445703e-08,-2.9791890227444174e-07,-0.23405801345390526,0.11524408109135341,-0.007520678116838968,9.799999413384311
1727687371.207248,-4.350366268417155e-07,4.618357680508632e-07,0.7230149704839403,-0.6908323620500884,-7.375368340622684e-08,-3.05722949460497e-07,-0.23966630683583343,0.12510894692254834,0.014430378536661471,9.799998450820704
1727687371.27698,-4.3180653216795315e-07,4.6289627369502286e-07,0.7263160395405638,-0.6873609028055853,-7.599864089696535e-08,-3.0469554224264185e-07,-0.2392106703225283,0.1190337335892726,-0.000479901967843528,9.799999111775376
1727687371.5966876,-4.293560805104724e-07,4.636408990859289e-07,0.7287772909239075,-0.6847508015571876,-7.64423034506786e-08,-3.0396266502396517e-07,-0.23916396616995414,0.12068082984247006,-0.007647135521172935,9.799999462297052
1727687371.5987709,-4.269338588810489e-07,4.6438754884434874e-07,0.7312018514168294,-0.6821611631309739,-7.425403614046458e-08,-2.9793527479865073e-07,-0.23437633439826602,0.10289425649304443,-0.009485300471454999,9.799999480665607
1727687371.611239,-4.245656946092095e-07,4.651204421519539e-07,0.7335928821402533,-0.6795892018512063,-7.193718304183303e-08,-2.9627445901002995e-07,-0.2343096728979489,0.12281607100655927,-0.006069627199775162,9.799999498148143
1727687371.6496694,-4.214386424769257e-07,4.661173678689503e-07,0.7367711004591048,-0.6761422524350069,-6.941713062044601e-08,-2.959804114179087e-07,-0.23443962995597661,0.11833768888091965,-0.0073601451314185195,9.799999514934536
1727687371.7328622,-4.1911648422732545e-07,4.6687952237124244e-07,0.7391464462893103,-0.6735447505084499,-6.742683794248733e-08,-2.95780546738134e-07,-0.23468205198874795,0.1186209975552237,-0.007350330629582745,9.799999529431483
1727687371.769372,-4.168133446685192e-07,4.6765308701613e-07,0.7415129416434199,-0.670938564531008,-6.549918479274461e-08,-2.9530538867573775e-07,-0.23468728399413674,0.11844058918565299,-0.007379315905888422,9.799999543782757
1727687372.0141015,-4.138233410774572e-07,4.6865157392584194e-07,0.7445378555912998,-0.6675802435596172,-6.311410277650186e-08,-2.784121514326674e-07,-0.2217067374546869,0.10180978534724298,-0.008052586323483293,9.799999565763796
1727687372.0171363,-4.1155820340152645e-07,4.6945787393653096e-07,0.7469826104608903,-0.6648435753383226,-6.109842608141023e-08,-3.095853513879631e-07,-0.2473774488729141,0.14471679191665737,-0.005305993419941234,9.799999567279391
1727687372.0386949,-4.0921224422833434e-07,4.7036036784223175e-07,0.7494684482144806,-0.6620400630857544,-5.934311579428468e-08,-3.135042006163605e-07,-0.250079739265743,0.12836638166651906,-0.008071081538436779,9.799999588334533
1727687372.080805,-4.0609716633321165e-07,4.7158685548158283e-07,0.7527710257290668,-0.6582824491222756,-5.7113638110069074e-08,-3.130581359585952e-07,-0.25013898681005664,0.12632335940421374,-0.008377047717535158,9.79999960579735
1727687372.1135457,-3.970404084090442e-07,4.646794620732836e-07,0.7551415454107269,-0.6555617792354322,-7.374779452531662e-07,-2.928700263870578e-07,-0.23579652771765094,0.048374621417169195,-1.9453121007702219,9.800002123448559
1727687372.1430695,-3.8837214387235317e-07,4.5786519304951547e-07,0.7573626557902373,-0.6529944927899454,-7.154509035874557e-07,-2.6905066363014705e-07,-0.2215933460523174,0.02899624007904514,-1.943519626976562,9.800002086900172
1727687372.1710157,-3.80076503730172e-07,4.511474600500229e-07,0.7594380920523971,-0.6505795757165043,-6.940658337245618e-07,-2.4644597322034396e-07,-0.2076933418658373,0.012822687557764759,-1.9416369834285985,9.800002051391473
1727687372.4232605,-3.695652145183599e-07,4.4234854639698566e-07,0.7619910134452246,-0.6475875967221634,-6.665258552040195e-07,-2.1879364616417638e-07,-0.19017953509555852,-0.004673003622933537,-1.9391760679920869,9.800002005619051
1727687372.4685593,-3.62070639772491e-07,4.3587440580977704e-07,0.7637549382911526,-0.6455063084397832,-6.465810970570743e-07,-1.9986004598904627e-07,-0.17780369080953728,-0.01588561946357515,-1.937497753678749,9.800001972664498
1727687372.499866,-3.5489049747017303e-07,4.295121431585461e-07,0.7653978059207066,-0.6435574556257257,-6.27228496179197e-07,-1.823666806455261e-07,-0.16606050928284977,-0.0255989890643488,-1.9359502972676,9.800001940835273
1727687372.7494893,-3.583153979318275e-07,4.362309349106114e-07,0.7674109107620839,-0.6411555926941526,6.889756840145885e-07,-1.6706328600303635e-07,-0.1512127423840394,-0.02791144499141198,1.718091135810294,9.799997593528383
1727687372.7684944,-3.638939672495543e-07,4.447813237328853e-07,0.7687974668750928,-0.6394923415695534,6.685320918151917e-07,-1.5884509186254504e-07,-0.14102719271558495,-0.017868738734709712,1.7192182404409566,9.799997571138707
1727687372.7991428,-3.693061668917598e-07,4.530748878511354e-07,0.7700881617507469,-0.6379374758791129,6.486875046169539e-07,-1.510122123088113e-07,-0.13164877187914817,-0.009059685528729433,1.7201923822336684,9.799997549557864
1727687372.861314,-3.762739598778648e-07,4.6374559112543584e-07,0.7716735508697444,-0.636018813312722,6.231308661104986e-07,-1.4115303364971274e-07,-0.12027833763982294,0.0010072411933411923,1.721288180794235,9.799997521888335
1727687372.891885,-3.8006761572144884e-07,4.699472627930141e-07,0.7727145155614474,-0.6347537140027399,2.1074499995923442e-07,-1.241346610319314e-07,-0.09500427269889726,-0.23738448550601904,0.5966569325866145,9.799991077164412
1727687372.92557,-3.8105559919604114e-07,4.721189630166413e-07,0.773240559086439,-0.6341127957889849,1.0785001847480928e-07,-5.0746713372598784e-08,-0.03822723325355983,-0.19186206156121252,0.33696244330179215,9.799998062028655
1727687373.1477158,-3.837510833953646e-07,4.7578093046299665e-07,0.7735176011899436,-0.6337748185664853,3.159199475453748e-07,-2.7343512224517914e-08,-0.020174713371609344,-0.16849687066892707,0.9371012501811065,9.799992989997182
1727687373.1605825,-3.8503541126442075e-07,4.771889987229448e-07,0.7734587345618698,-0.6338466580566432,2.2279531831866964e-07,1.6365643332510722e-08,0.008859865246156966,-0.03511647557535028,0.7120249166951628,9.80000385032081
1727687373.1901364,-3.849605706419484e-07,4.7679004126188243e-07,0.7733669952470175,-0.6339585874978145,-3.6834522876820904e-08,1.9142363091272687e-08,0.009741775052089783,-0.004945365495101902,0.0019077055061246836,9.799999664081072
1727687373.229388,-3.8571926496918756e-07,4.773954746889882e-07,0.7732540551464622,-0.634096338263497,-1.6523324330851578e-09,2.294193466542324e-08,0.013321892329903528,-0.016317641702119356,0.10221269116311307,9.799995088391102
1727687373.2759821,-3.854858291222479e-07,4.7662889294689655e-07,0.7730816697597883,-0.6343064967987019,-3.793346227043882e-08,2.35909828292563e-08,0.013617420053669475,-0.006142199208617652,2.3741080664188513e-05,9.799999769678873
1727687373.3098884,-3.864453235704476e-07,4.773998692792067e-07,0.772885060787563,-0.6345460446736924,4.080270860856501e-09,3.6609681035317544e-08,0.025468953343870632,-0.046359017634993616,0.11668277702975813,9.799994300913895
1727687373.5778222,-3.894147844834465e-07,4.804856723374858e-07,0.7726017519457532,-0.6348909614177621,3.034953507373764e-07,4.5106175385950536e-08,0.037410207288082226,-0.17532298563518575,0.9441223297388992,9.79999305416425
1727687373.63505,-3.9131156195115826e-07,4.812955421560568e-07,0.771602274103779,-0.6361052826360521,-2.972174411257118e-08,1.2451280500498154e-07,0.09523121497533726,-0.11058331873572744,0.050209110709701285,9.799997093549496
1727687373.667798,-3.915973652718817e-07,4.800142072129158e-07,0.7706793329370637,-0.6372231679586818,-5.019166531522645e-08,1.2935163804597254e-07,0.09681185423912085,-0.04937217409274557,-0.001763813372514301,9.799999823012646
1727687373.9387584,-3.919082072855679e-07,4.789048112098774e-07,0.76997293757022,-0.6380765435346322,-3.333135395459545e-08,8.546523913733906e-08,0.05762517967642585,0.09928102127411402,0.061372138306928906,9.79999997446831
1727687373.942556,-3.9193355046157097e-07,4.779549410000339e-07,0.769451774612128,-0.6387049135131693,-4.782754473997119e-08,7.410937641301875e-08,0.054042930942766826,-0.02418810196246655,0.00018119261785702357,9.799999807963786
1727687373.976865,-3.919543203956265e-07,4.767183885582526e-07,0.7687618893572226,-0.6395351104290776,-4.599345174565297e-08,7.348304872246872e-08,0.05396438579266119,-0.026897757321659346,-0.0003498078820809712,9.799999822401997
1727687374.0084906,-3.9194445721836395e-07,4.7576247170337397e-07,0.7682347010772579,-0.6401682935450305,-4.605155065361649e-08,7.502025770556678e-08,0.055587011840152134,-0.03248460274653118,-0.005352080021839858,9.800000022864197
1727687374.0911674,-3.919939132394627e-07,4.7486430289388403e-07,0.7676995119025485,-0.640810002593756,-4.3162701149708284e-08,7.515538980731741e-08,0.055720517284852465,-0.027871734493640783,-0.00040464478196099347,9.799999833438417
1727687374.1302173,-3.920533606804495e-07,4.736478093984263e-07,0.7669675208585932,-0.6416859215750689,-4.136514395754298e-08,7.667823770262925e-08,0.05721023749166889,-0.02880853818071187,-0.0005146308408049962,9.79999984274477
1727687374.3642092,-3.921446844182402e-07,4.728342698501747e-07,0.7664847511230585,-0.6422625057524732,-3.911349300228859e-08,6.310965043576022e-08,0.04529412267349064,0.012484386383679335,0.008028623632824836,9.799999686185744
1727687374.3765352,-3.921915259881349e-07,4.7210966989788306e-07,0.7660459284039135,-0.6427858395884349,-3.90199927751887e-08,6.140999041299689e-08,0.04555930056151923,-0.02293301891670064,0.00039935000978271953,9.799999818420225
1727687374.4197388,-3.9220732392617316e-07,4.71092964944069e-07,0.7654598452421837,-0.6434836636010554,-3.771783399219594e-08,6.114129853311739e-08,0.045565087829906044,-0.022734405497156912,-0.00024490825766785716,9.799999854683254
1727687374.6973913,-3.914811764437921e-07,4.6950081451322394e-07,0.7650817561779489,-0.6439331536450752,-4.343380308333751e-08,4.87196034817769e-08,0.035560800554595276,-0.0069522850768488605,-0.023404384579660407,9.80000406089644
1727687374.7009947,-3.9145051886834536e-07,4.6885408503086605e-07,0.7647407243827826,-0.6443381289898371,-3.339415770120489e-08,4.7620128713639876e-08,0.035264499689554925,-0.017148101719715102,-0.00017437696719185459,9.799999865617028
1727687374.7225533,-3.91719139848797e-07,4.685698388072109e-07,0.7643936167628856,-0.6447498729366155,5.719711900618662e-08,4.843073067461088e-08,0.03718815042342845,-0.04409936003524769,0.24442912598465721,9.800001331649003
1727687374.766253,-3.9184568411151815e-07,4.6788569429180977e-07,0.7639284234648869,-0.6453009869991522,-2.886621093572493e-08,4.613565957076868e-08,0.03388733698036929,-0.005083069105966844,0.01123539886408573,9.799999431858634
1727687374.7962465,-3.918214863116924e-07,4.6728442509066773e-07,0.7636031488573584,-0.6456858609685945,-3.143697109443021e-08,4.4977834814884196e-08,0.0335594754124879,-0.01640795661209653,-5.923926275830484e-05,9.799999874652345
1727687374.8408182,-3.918015383391526e-07,4.666940766454556e-07,0.763278080204425,-0.6460700985799265,-3.051233498008205e-08,4.4805186759491433e-08,0.03355239895289132,-0.016652164238311125,-0.0001231174704526178,9.799999879702685
1727687375.0989165,-3.9121986540913673e-07,4.6513044837839987e-07,0.762586376072504,-0.6468864034961902,-1.8840158976261925e-07,9.34522781787251e-08,0.08469090012727912,-0.34640673600753885,-0.4869667573292534,9.799998042215282
1727687375.107142,-3.914413365587162e-07,4.639590749093833e-07,0.7616489239548724,-0.6479899047346468,-2.646379724166825e-08,1.246078153850688e-07,0.09794151757821218,-0.058026025388824544,-0.006143596837390729,9.800000047812118
1727687375.13409,-3.920498476089752e-07,4.632114818272568e-07,0.7607543068600043,-0.6490399714914222,-2.421345676463348e-08,1.16794221166428e-07,0.0912528356353984,-0.039458775975947616,0.0016424850618983928,9.79999980193262
1727687375.1892183,-3.92588891825788e-07,4.619716343627263e-07,0.7595778501624804,-0.6504163970428306,-2.633004774981793e-08,1.1456424201054362e-07,0.08979345560130109,-0.039996026226546466,-0.007512434858153153,9.800000212559118
1727687375.2547736,-3.930385134545472e-07,4.611191763744968e-07,0.7587020630503848,-0.6514377787039394,-2.3065940601875037e-08,1.139989591784497e-07,0.08968478366764789,-0.04373117897705307,-0.0010273112741439455,9.79999990014599
1727687375.2841656,-3.912331353117844e-07,4.576449437026203e-07,0.7578312724670115,-0.6524505823973703,-7.162716744678304e-07,1.1341434263338872e-07,0.0877708429626762,-0.02027368833334807,-1.920845673348442,9.799988535866204
1727687375.5292108,-3.893006264748416e-07,4.541016250207859e-07,0.7570078640368961,-0.6534057650387991,6.225499809914308e-07,1.0283046677944412e-07,0.08229618251642931,-0.009068628379604746,1.7315665555778827,9.800023943262703
1727687375.5339932,-3.918545619094653e-07,4.552623835720747e-07,0.7557640409313173,-0.654844038252472,-4.264990258156519e-08,1.2308323685805814e-07,0.0999004721513652,-0.08643053709456931,-0.08974845782198501,9.799999090538865
1727687375.5480504,-3.9245696670720476e-07,4.5446157724614286e-07,0.7547721161252854,-0.6559870827382182,-1.2108027264005646e-08,1.2620996704339692e-07,0.1010138690687105,-0.04764843844168385,-0.0016688445062827096,9.799999921468208
1727687375.8788235,-3.922170695475852e-07,4.526844560315639e-07,0.7538058841974931,-0.6570971685746915,-2.7534159304104005e-07,1.2158953748581864e-07,0.0922714913626253,0.07463670676567113,-0.7151487071528699,9.799995581465954
1727687375.888461,-3.9189508953237237e-07,4.5054566183354025e-07,0.7526314172646807,-0.6584420625581278,-1.0608757454198207e-08,1.10367324411125e-07,0.08900311752669868,-0.03917290178286067,-0.015042766008260322,9.800000551331497
1727687375.9184995,-3.9248207527872015e-07,4.49916235747857e-07,0.751751850147379,-0.6594460977211374,-5.30862213428943e-09,1.101679683919281e-07,0.08898565089382605,-0.0397438648883826,-0.0010494535914112194,9.799999919473187
1727687375.949564,-3.9303649434478557e-07,4.492540170275439e-07,0.7508620927308945,-0.6604590204542785,-1.5457576912166064e-08,1.1149230517803772e-07,0.09167209327441504,-0.07741565030063813,-0.034849954611167806,9.79999975358892
1727687375.990299,-3.9384877574471724e-07,4.483931802832677e-07,0.7496375143070347,-0.6618486210178381,-4.790723280544615e-09,1.1441837809355758e-07,0.09270226559867603,-0.04159882547075197,-0.0011447022255719778,9.799999924085467
1727687376.0435297,-3.937707642035714e-07,4.4700759215251874e-07,0.7487632755179511,-0.6628375043970234,-6.212335197457721e-09,1.0781522837380502e-07,0.0874343444139119,-0.0344887882853933,-0.01020355126481531,9.800000365913041
1727687376.3119075,-3.9206515256851214e-07,4.438255115328028e-07,0.7479005641510466,-0.663810775855737,-6.96384430781709e-07,1.0705113674532343e-07,0.08543913999474993,-0.01522773908261574,-1.9206578921480681,9.799988525512424
1727687376.3166387,-3.912166708128277e-07,4.4177493387265984e-07,0.7471898841026863,-0.664610620660147,9.530089034168795e-10,8.522667560198384e-08,0.06965151599638719,-0.01634357942805307,-0.019677361693955245,9.800000860546566
1727687376.3386688,-3.9181712764004915e-07,4.41184683197716e-07,0.7463130467487695,-0.6655950993300812,7.867931269981866e-09,7.806867794483071e-08,0.06420278884288175,-0.022202623197729893,-0.0018644215018636325,9.800000014920515
1727687376.3690863,-3.922310121436179e-07,4.407490799705348e-07,0.7456735971683119,-0.666311403538707,-2.639671940765372e-08,7.757880009906811e-08,0.06382287380731302,-0.022485640809817093,-0.09619929313613906,9.799999360988908
1727687376.4654047,-3.9273935162784833e-07,4.4042630757732456e-07,0.7450362863941653,-0.6670239365687285,8.36004023801274e-09,7.715766994585602e-08,0.06372005098328314,-0.025884682030604084,-0.0007688085135210188,9.799999945849695
1727687376.510876,-3.916652762076406e-07,4.3808944669775877e-07,0.744277232093136,-0.6678707972261064,-5.7076251349469315e-08,6.053439336434154e-08,0.04813385389008079,0.031701131240409984,-0.1862990949672926,9.80000790673128
1727687376.7697573,-3.914839661332713e-07,4.372385381839419e-07,0.7437748831153465,-0.6684301932486354,-1.6583911864737054e-07,6.140773807194448e-08,0.056474414692037345,-0.15445505250517555,-0.5148085208719183,9.799997028510669
1727687376.7733648,-3.9155309122620616e-07,4.3651906048628926e-07,0.743189926815073,-0.66908051285347,1.213688702310887e-09,6.941453158124936e-08,0.05772960965094282,-0.01798154460494448,-0.0400844517386699,9.80000175072223
1727687376.8161116,-3.9227571768058276e-07,4.362677135473169e-07,0.7424183697443667,-0.6699365374912555,1.5279005542802845e-08,6.900802440366172e-08,0.057610384866650655,-0.022075881635285056,-0.00042851459620159196,9.799999941555578
1727687377.1211948,-3.927301663701325e-07,4.3598128596274836e-07,0.7418516116755292,-0.6705640806470887,-1.1533572604974344e-08,6.70949390415768e-08,0.05389872204083526,0.029752937751971867,-0.06632526185261622,9.799999504966337
1727687377.1270201,-3.9322455765147526e-07,4.3580343656643893e-07,0.7413218164998938,-0.6711497332048587,1.459185064926427e-08,6.284172415111796e-08,0.05249965371511671,-0.019013890154881887,-0.000386210436130276,9.799999952793755
1727687377.14841,-3.9372387368165604e-07,4.356408361418295e-07,0.7407933309145599,-0.6717330130879131,1.4228598405054367e-08,6.27392988235463e-08,0.052469533491598636,-0.02006616666190368,-0.0003391504255762233,9.799999945874646
1727687377.2235072,-3.94060837672094e-07,4.35063346141887e-07,0.7400787484625373,-0.6725202198252329,-8.186110567283863e-08,6.425091179009304e-08,0.05522639310366364,-0.05904991112071757,-0.27049742413496075,9.799998377952372
1727687377.2539198,-3.9452978192535774e-07,4.3482317066327427e-07,0.739511982179641,-0.6731433934997755,1.4107058373400749e-08,6.718659978264925e-08,0.05626831264911171,-0.022179049939790238,-0.0012578578210061774,9.79999998327414
1727687377.3055758,-3.944182451048462e-07,4.3393522018542637e-07,0.7389625472484803,-0.6737465055669629,-1.7443753374985462e-07,6.448066110540708e-08,0.05059705259786402,0.057636208339069656,-0.511630336695382,9.799996843489433
1727687377.563828,-3.9262838027634724e-07,4.310878059720369e-07,0.7383106463577718,-0.6744608138909401,-6.780740149797631e-07,5.7781953938313674e-08,0.047366285441100914,-0.005324531435720459,-1.9208286922043256,9.799988528275815
1727687377.5656927,-3.922618937813462e-07,4.3006951336179357e-07,0.7378481462724252,-0.6749667495825309,1.9823007356904175e-08,5.363031365728053e-08,0.04550131287140286,-0.014377693386979534,-0.012885075297239921,9.800000529463384
1727687377.5905352,-3.92089545477973e-07,4.292683886022794e-07,0.7373664833974802,-0.6754929082985958,-8.562383304729448e-10,5.7114029922032874e-08,0.04897979605666779,-0.02729022685745595,-0.07529626166980576,9.800003266352247
1727687377.6430054,-3.9269826143256533e-07,4.2906755742193495e-07,0.7366958920902594,-0.6762241954980601,-1.9185391837113955e-08,5.8749103489485115e-08,0.05072702373781481,-0.03737179475260937,-0.12552541932253805,9.799999229413922
1727687377.7336268,-3.932619707761547e-07,4.2900821211565285e-07,0.7361761415567519,-0.6767899885505652,2.4619013183142285e-08,6.032778746548124e-08,0.05127767507367391,-0.017839166020646207,-0.0007353603056704717,9.799999971731165
1727687377.7679331,-3.935425010412561e-07,4.2863598118635295e-07,0.7356588129749707,-0.6773522797569358,-6.540298103505156e-08,5.993673676315735e-08,0.050238358818508196,-0.0030280156456160994,-0.2461685388492309,9.799998481867878
1727687377.998207,-3.940694222976729e-07,4.285500193694575e-07,0.7351517507149862,-0.6779025766438359,2.4062667031969166e-08,5.8624214926365303e-08,0.049844155166336196,-0.016474379744139976,-0.0009590879589389784,9.799999989488368
1727687378.0031836,-3.9199305799626584e-07,4.2546494208139847e-07,0.7345241557958048,-0.6785825407068219,2.8961095438920854e-08,5.260293934945089e-08,0.045062087137844035,-0.011276891587197366,-0.0074122698273411825,9.800000298049358
1727687378.028955,-3.925982421824049e-07,4.255367947082508e-07,0.7340660252537167,-0.6790781034372073,3.07714830089112e-08,5.239864919242812e-08,0.044983820196077925,-0.014022160739897946,-0.00026337074836087275,9.799999960502928
1727687378.3604624,-3.93195462659384e-07,4.255998594509788e-07,0.7336076605786743,-0.6795732486935818,2.986560400354739e-08,5.2425387144586415e-08,0.044982137819406146,-0.0140813827449018,-0.00025103183138847096,9.799999960796331
1727687378.36989,-3.9178187877789856e-07,4.2317210534072044e-07,0.7328495362239225,-0.6803907386612851,3.303224669820471e-08,6.745242070814149e-08,0.05824237543697871,-0.02305327662087275,-0.007964866227030604,9.800000264407629
1727687378.3849695,-3.9251116466497846e-07,4.232028350502692e-07,0.73225335560476,-0.681032321703776,3.4422388948569685e-08,6.797392729135458e-08,0.0584053193455052,-0.01729038546607294,-0.00047496386702580604,9.799999963291972
1727687378.4163065,-3.932319928857449e-07,4.2322245540502957e-07,0.7316564039723877,-0.6816736070333516,3.340871143504681e-08,6.802695258458916e-08,0.0584088230391478,-0.01716669060046568,-0.00043798319412522487,9.799999963520502
1727687378.4574103,-3.9344029199085565e-07,4.224603150186991e-07,0.7308828798336313,-0.6825029054632401,3.370475342179117e-08,6.573663804350341e-08,0.05653445877169898,-0.015876730859588423,-0.0018136356344825339,9.800000030153408
1727687378.5328019,-3.8943637258073055e-07,4.174451559010203e-07,0.7303170841915518,-0.6831083051300313,-6.533486705051514e-07,6.383570123782532e-08,0.05396537638759101,0.0003675481413757028,-1.920329140477199,9.800002294066172
1727687378.7745397,-3.8321072212098317e-07,4.101155799493274e-07,0.7297891799349683,-0.6836722554335019,-6.338864395957261e-07,5.825524508739001e-08,0.05028663634593024,0.0035036607502665256,-1.920192846556594,9.800002254554368
1727687378.7782638,-3.7714437982738544e-07,4.0302846842067423e-07,0.7292972867436285,-0.6841969508468135,-6.150018610533553e-07,5.310163113840175e-08,0.04679866234876042,0.006199613384750925,-1.920063117425312,9.800002215680884
1727687378.822526,-3.692991945185661e-07,3.9394055280434326e-07,0.7286942756203124,-0.6848391436519211,-5.906902781628016e-07,4.684724615941027e-08,0.042435401149453954,0.009169913196740534,-1.9198984284754483,9.80000216567219
1727687378.85588,-3.6449681381624017e-07,3.883357837318991e-07,0.7283192804793517,-0.6852379336272588,-3.1085044659028115e-07,3.751001604623172e-08,0.02771378570603434,0.1751827326749538,-1.170365721317499,9.800006522176158
1727687378.946853,-3.648716891328467e-07,3.8858498738319097e-07,0.7282836051066548,-0.6852758499557459,1.1859254670574515e-07,5.236733319678927e-10,0.0005918365284756653,0.021566057991661985,-0.01035653093692941,9.800000545415312
1727687378.9833536,-3.6650483138760975e-07,3.9034922505290726e-07,0.7282828308479046,-0.6852766728058642,1.1858665978486631e-07,-1.0817957139087558e-09,3.510127747069616e-06,0.00012795499749199352,2.3638805762397153e-05,9.799999953401324
1727687379.2105145,-3.676879200756114e-07,3.916299562689806e-07,0.7282828263268067,-0.6852766776106929,1.1506525375254527e-07,-1.0588218099258998e-09,7.502515588735405e-08,2.74660780880808e-06,1.0936922563933656e-05,9.799999954600764
1727687379.2120118,-3.6883585666722735e-07,3.928726509113162e-07,0.728282826230172,-0.6852766777133907,1.1164799811806811e-07,-1.0274541170368463e-09,1.6035878555603891e-09,7.065630593718805e-08,1.0598571621529627e-05,9.799999955979537
1727687379.2360973,-3.7031358408424935e-07,3.9447235844023753e-07,0.7282828262280732,-0.6852766777156198,1.0724894870428904e-07,-9.868744966718447e-10,9.50440368504328e-12,1.2937311392826728e-08,1.0631809681330052e-05,9.799999957726206
1727687379.300337,-3.734764468392391e-07,4.1653654933857926e-07,0.7438732410973153,-0.6683207322678703,7.028515215373934e-08,-1.0408920345656825e-07,-0.10734537069389137,0.3624862113079194,0.04820131992982304,9.79999991646235
1727687379.5167727,-3.7321343403793766e-07,4.186474603558715e-07,0.7461045157209766,-0.6658288455905559,7.267047538471256e-08,-2.1255404848154151e-07,-0.19779377138162074,0.23137600842919168,0.03820241754046321,9.800000023436167
1727687379.5370219,-3.726035390889665e-07,4.2054468515534196e-07,0.748131775563298,-0.6635501837782813,6.651871717805363e-08,-2.3058859734113044e-07,-0.20398657746852994,0.005756926880748719,-0.005087797307618112,9.799999977052495
1727687379.5388603,-3.713835446531573e-07,3.956306400677139e-07,0.7282828262280603,-0.685276677715632,1.0406421518804011e-07,-9.575257952142275e-10,1.9490428944255689e-13,1.2876028944668701e-08,1.066187047583611e-05,9.799999958970712
1727687379.5404642,-3.7229250093769324e-07,3.968828564508733e-07,0.7288453728571702,-0.68467833503361,1.0124586438315161e-07,-7.249241697823806e-08,-0.08147116384660084,0.3712367855506293,0.050514044014779894,9.799999903429446
1727687379.5559146,-3.7268548845945203e-07,3.9855470478785546e-07,0.7302036988816117,-0.6832295061978183,9.818597775092922e-08,-1.5704676263033661e-07,-0.15725402554827908,0.34567974555198405,0.04293589940136222,9.799999912890167
1727687379.5783045,-3.719439452328688e-07,4.224341882402483e-07,0.7501597739635892,-0.6612566170002232,6.45174209718439e-08,-2.3132080433501062e-07,-0.20411897354570369,0.0009326898908730847,-0.0058076853960742705,9.799999981236327
1727687379.5918052,-3.7265308259341503e-07,4.0124687174383967e-07,0.732540845527908,-0.6807230785223588,9.499338961909574e-08,-1.9081820488701087e-07,-0.17274628914249074,0.003962994059651714,-0.0036679250326941107,9.799999964830878
1727687379.6314209,-3.7254014528230795e-07,4.0325602531146964e-07,0.7343030937032932,-0.6788217487510777,9.21519968352922e-08,-1.9150613980898314e-07,-0.17283678657187704,0.0006653405712522261,-0.004161587839336402,9.799999968386665
1727687379.6815295,-3.7239815363706274e-07,4.052251927501743e-07,0.7361407139632333,-0.6768285227776665,8.865731504085934e-08,-2.0245186918126946e-07,-0.19653355748293572,0.33253964693716725,0.03790830513215307,9.799999938287057
1727687379.8172572,-3.708871190941553e-07,4.250132546745153e-07,0.7532990561769914,-0.6576781370568248,6.079272282909731e-08,-2.9355483494165224e-07,-0.2714001623978961,0.30847027027784557,0.026334689266935968,9.799999944779623
1727687379.8472128,-3.6959787744110623e-07,4.273180350601805e-07,0.7564006530900004,-0.6541085934343791,5.901330075850536e-08,-3.6870495220669375e-07,-0.33717974229588044,0.3091729892819383,0.017069949771773268,9.799999956667556
1727687379.8773875,-3.6798501417019123e-07,4.3003666782701447e-07,0.7599104554507113,-0.6500277684040673,6.213425266803701e-08,-4.111832395068512e-07,-0.3626811934206266,0.03806389556428591,-0.011414328323678795,9.799999940458951
1727687379.9168694,-3.655839961632679e-07,4.3364800621715626e-07,0.7646232060069492,-0.6444775813287322,5.900894030582014e-08,-4.154233537185105e-07,-0.3642745492012346,0.003467702031759179,-0.01844682447094433,9.799999998231076
1727687379.9415326,-3.716930313340698e-07,4.0821375965753463e-07,0.7395573698521937,-0.673093527451424,8.517511388825656e-08,-3.037592079194636e-07,-0.28620996057352066,0.3086041788699718,0.02446235246331808,9.799999938654047
1727687379.944192,-3.709331319131435e-07,4.105776205002265e-07,0.7416998237829797,-0.6707319668839338,8.182694237844174e-08,-2.2025422701644423e-07,-0.17623508790243236,-0.504048903940453,-0.07915096223390007,9.800000057641714
1727687379.9621317,-3.708151231315602e-07,4.123066481932456e-07,0.7427758724491279,-0.6695401431632977,7.946961098969182e-08,-1.0431965065229549e-07,-0.07329918122066562,-0.46858037054424984,-0.06721858881193507,9.800000045499955
1727687379.9694223,-3.6373063988839026e-07,4.363039571057369e-07,0.7682037485854625,-0.640205436292852,5.2817371255164306e-08,-4.265826160740763e-07,-0.3862328760847476,0.30999918648000707,0.008818925349460403,9.799999907772994
1727687379.9997897,-3.6153814124579914e-07,4.3912658469897756e-07,0.7723178457426643,-0.6352362907982245,5.131881516363226e-08,-5.02327595901679e-07,-0.4520055425541088,0.31088698679806875,-0.004048319285408457,9.799999983529466
1727687380.0030475,-3.716008127944438e-07,4.1379738521171234e-07,0.7429637542195924,-0.6693316516612822,7.692936586222728e-08,-3.442570746424234e-09,-0.0009456284748303214,-0.03234400567698806,-0.0038529384071504646,9.799999952167333
1727687380.0699515,-3.7234701815203855e-07,4.146435971264638e-07,0.7429649438651195,-0.6693303311423959,7.445140324498427e-08,-5.806378289745676e-10,-2.0211860774745457e-05,-0.0007367134802609033,-9.299038840504827e-05,9.799999970895271
1727687380.1029758,-3.7308516001438583e-07,4.154542538889481e-07,0.7430580522221989,-0.6692269652572587,7.25671602119572e-08,-1.3311956348715938e-08,-0.027816329145284115,0.3894669348134793,0.05414702174385186,9.799999953536112
1727687380.2332377,-3.5886885549573933e-07,4.4227719638555553e-07,0.7770211567886712,-0.6294744807396648,4.9895046633940355e-08,-5.782241590031587e-07,-0.5177691762134078,0.31180329918278205,-0.018978749492033598,9.800000001174645
1727687380.2566648,-3.549195669506462e-07,4.47229212951753e-07,0.7838431229541267,-0.6209589025025695,5.833420277319316e-08,-6.303504837643928e-07,-0.5500936933292125,0.023316478418504698,-0.03806729223646411,9.799999979583893
1727687380.2884283,-3.516948522291601e-07,4.5083691803432026e-07,0.7889460406914287,-0.6144624845155248,5.597061434628354e-08,-6.328292321093965e-07,-0.5508444063651813,0.007037749883098724,-0.042306419976456136,9.800000027601106
1727687380.374945,-3.483924089291706e-07,4.543554972909013e-07,0.7940631164406629,-0.6078353124886826,4.3805432989835317e-08,-6.444478997195994e-07,-0.5728073216254269,0.3135834700492463,-0.03305025195815909,9.799999837629988
1727687380.413766,-3.454624178211254e-07,4.6202633687368734e-07,0.8014627172972805,-0.5980447414551243,7.001474490414802e-07,-7.17972341085591e-07,-0.618117615115759,-0.10749794464931205,1.7194478712206926,9.800010380584034
1727687380.4479332,-3.4724126218065694e-07,4.735044546405469e-07,0.8068418694878656,-0.590767464947911,6.792150012788158e-07,-7.068628235204214e-07,-0.5959646765620872,-0.07241378052774244,1.726332148911818,9.79999782786858
1727687380.6923964,-3.4498359971984903e-07,4.792848501554288e-07,0.8116995318072515,-0.5840752263737435,6.342025747576737e-09,-6.377249386030502e-07,-0.5145871924082855,-0.45986602754686656,-0.1387204706850524,9.800000156555166
1727687380.7025871,-3.414078900948411e-07,4.844062776187023e-07,0.8172009292725875,-0.5763528790555907,1.2131940222038576e-08,-5.579049073369833e-07,-0.46424689262659535,-0.0016207567157664649,-0.0321979174498665,9.799999636451908
1727687380.7336462,-3.3800686835166607e-07,4.868307223705125e-07,0.8211378913582861,-0.570729851484322,2.1975663094885987e-09,-5.456227852139239e-07,-0.45430154803627115,0.0025965043728721276,-0.05607416832156493,9.800000058754687
1727687380.9907074,-3.3818552466799655e-07,4.942973611878378e-07,0.8249306372223476,-0.5652339725915038,6.202293628532341e-07,-5.331756307825828e-07,-0.4393746986097118,-0.03218204647287969,1.6730919504289423,9.799997864400297
1727687380.9999788,-3.3987931089420917e-07,5.039131896709282e-07,0.8285359435337474,-0.5599358805008601,5.581447498368342e-07,-5.204115412351895e-07,-0.42011083394109705,-0.0404684104534904,1.5521999287395978,9.79999712337647
1727687381.0426047,-3.380960312188116e-07,5.100319807490952e-07,0.832660610465017,-0.5537836290282069,2.6462292059245368e-08,-4.3453857711010105e-07,-0.34407035057958285,-0.0895281691136819,0.12208775422684089,9.79999642668759
1727687381.0715094,-3.369194342742252e-07,5.140777609618899e-07,0.8354448230797753,-0.5495743330877317,5.881551256496333e-07,-4.1607382613872266e-07,-0.332232417790786,-0.011001738641795317,1.6928898981939153,9.800010098526027
1727687381.1143372,-3.357952097404913e-07,5.179134862108622e-07,0.8379972692805093,-0.5456744236978934,-1.8797952121227903e-08,-3.837932282317977e-07,-0.3047260962602697,0.02738038284082141,0.05007396051391737,9.79999753995935
1727687381.1622543,-3.337799235222606e-07,5.216047083610405e-07,0.8410926751292901,-0.540891035092532,-4.6626023649222287e-08,-3.5391264526911617e-07,-0.2815084003522565,0.06663943188380711,-0.006081049058406152,9.799999753846901
1727687381.3997154,-3.2742644080465114e-07,5.166026824093279e-07,0.8433254579445986,-0.5374031745181255,-7.366982423297924e-07,-3.401027040394266e-07,-0.27081497792146436,-0.0025194961998667663,-1.9499795775345945,9.800002527099425
1727687381.4164772,-3.195441789140462e-07,5.087844884812406e-07,0.845415791644856,-0.5341087335338564,-7.147729138584106e-07,-3.132545744956632e-07,-0.25472279093404204,-0.02343357608909187,-1.9480356052661576,9.800002478838357
1727687381.4550095,-3.096190546409105e-07,4.985663561444759e-07,0.847984352406469,-0.5300212619069511,-6.865191554768488e-07,-2.790783840315651e-07,-0.23342873033727515,-0.044697914946651214,-1.9451074434725502,9.800002415777682
1727687381.539065,-3.0522889468811723e-07,4.953966722859461e-07,0.8499060393233516,-0.5269342694505216,-1.3908928061918288e-07,-2.8871855806723723e-07,-0.2563609635943186,0.22650902356748095,-0.433300441364009,9.800002044705362
1727687381.5699992,-3.0230772805133525e-07,4.951450245991379e-07,0.8521672857867255,-0.5232694497431973,-1.1314085511465411e-07,-3.4128955234384235e-07,-0.302399851401958,0.23055759929760847,-0.37683531390021785,9.800000492113474
1727687381.5995357,-2.986661562239225e-07,4.944184731180465e-07,0.8547287100680594,-0.5190749774214296,-1.373982999732132e-07,-3.8383045168132584e-07,-0.33948696020030683,0.2044457290264018,-0.46601174705212506,9.800002901394562
1727687381.8025775,-2.947788247947917e-07,4.957956445660035e-07,0.8582088795612144,-0.5133006127426228,3.346208887168179e-08,-3.6365859325443614e-07,-0.29455492059976085,-0.5094263665415867,-0.09512037534497188,9.80000010095985
1727687381.8203785,-2.930932750051837e-07,4.973820306612945e-07,0.8599048052543814,-0.5104544307772156,3.273971059614968e-08,-2.3553046445561503e-07,-0.18441239178978053,-0.5021825294205684,-0.08030303372198123,9.800000085343106
1727687381.8499587,-2.9215128324369495e-07,4.983639853525758e-07,0.8607859796932169,-0.5089670884873156,7.371723221470751e-09,-1.1443981877798753e-07,-0.08208049506260455,-0.4529891892163816,-0.13448599664501537,9.799999660768217
1727687382.104956,-2.904047645328211e-07,4.964517746253938e-07,0.8610588948597085,-0.5085052404672409,-1.9197234605883916e-08,-8.085358441641004e-09,-0.003464803318735806,-0.12069680471106611,-0.17434082101062418,9.800003202783396
1727687382.1211774,-2.906857665043014e-07,4.968874339245034e-07,0.8610622070432187,-0.508499631859778,3.715926914711089e-08,2.1230215877798007e-09,-7.407939060201852e-05,-0.002700368576759773,-0.0008175204310128633,9.800000009537357
1727687382.155695,-2.909940514610452e-07,4.973425488081465e-07,0.8610622778470203,-0.5084995119649269,3.62187447190422e-08,2.262408037430037e-09,-1.5834424102448114e-06,-5.767260693051128e-05,1.74790099405885e-06,9.799999988680812
1727687382.1908245,-2.9134153766395866e-07,4.97960848343243e-07,0.8612726776664261,-0.5081430651942145,3.490173172945193e-08,-4.360350147292044e-08,-0.05496672001034252,0.3802274528468788,0.0523881756999031,9.79999992544439
1727687382.248298,-2.910429144653032e-07,4.98732014986243e-07,0.8620881904668928,-0.5067582775418523,3.354650585413723e-08,-1.351108396336382e-07,-0.1326001406402009,0.3539697388867244,0.04559953447992533,9.799999933840894
1727687382.2796242,-2.9015760339179815e-07,4.998247999559817e-07,0.8634618381874457,-0.5044141691047381,3.230177518248505e-08,-2.2036995090771125e-07,-0.2048131235801103,0.329748469435589,0.03665190269046662,9.799999944725549
1727687382.5161588,-2.8881343699002473e-07,5.012140131744524e-07,0.8652144001584157,-0.5014020759412333,3.1114245279455974e-08,-2.725304787944879e-07,-0.2488330712035567,0.31512591054280087,0.029952583278729406,9.799999929985539
1727687382.5379424,-2.863997099306788e-07,5.033850843312104e-07,0.868093876002997,-0.4964000628986236,3.2632240451402434e-08,-3.434702847864892e-07,-0.2976430942816434,0.02516082168247997,-0.008830213391952293,9.799999982856951
1727687382.5671597,-2.8438978098532025e-07,5.050852415700223e-07,0.870305617097982,-0.492512063656683,3.155887703608192e-08,-3.4558470445705963e-07,-0.29827152200951684,0.0022654971053151425,-0.012374459644272239,9.800000004381488
1727687382.6699207,-2.823607872918161e-07,5.067661206113607e-07,0.8725005220167262,-0.4886131793967533,3.0600741429810574e-08,-3.4591366721641974e-07,-0.2982849569787585,0.0017759913970790983,-0.012444894081325564,9.800000004893462
1727687382.7097156,-2.796301771337037e-07,5.089757039677595e-07,0.8753999006056592,-0.48339943526990664,2.936707620275493e-08,-3.4628736686619864e-07,-0.29828524873282636,0.0017653612726898807,-0.012446396942999096,9.800000005294628
1727687382.74158,-2.7739464335413826e-07,5.106515339454564e-07,0.8778692037795901,-0.47890047092799026,2.554722014963394e-08,-4.088764039003857e-07,-0.3640642994030799,0.30959089912016524,0.012629124219302781,9.799999975525145
1727687382.947358,-2.762688751367978e-07,5.155565996978248e-07,0.8806429120271999,-0.47378060481188045,6.829474933356287e-07,-4.550015706404814e-07,-0.3859407177296899,-0.10789665687814612,1.7754394511018528,9.800010743077081
1727687382.972785,-2.78520710956129e-07,5.292656471441404e-07,0.8841033273293675,-0.4672914578769698,6.216745286565206e-07,-4.3235627121914284e-07,-0.35769956837974703,-0.05903728569161164,1.6884349409518755,9.799997170907538
1727687383.0052629,-2.7651409007412385e-07,5.324885535813757e-07,0.8866930556144744,-0.46235854607080246,-1.3144697068597018e-07,-4.600309512828768e-07,-0.3893905000772139,0.2712025754536374,-0.3289012279535684,9.799999784510263
1727687383.2936814,-2.721788957658529e-07,5.320969653509028e-07,0.8895794942226577,-0.45678038865323817,-1.768431763154983e-07,-5.119341094995377e-07,-0.43263082891778826,0.23797750814111063,-0.4794691822728515,9.7999998920451
1727687383.295721,-2.6925205443881753e-07,5.352470158814828e-07,0.8926916433572369,-0.45066798186669144,2.0603376968531134e-07,-5.561784748941897e-07,-0.46799797982128477,0.20314874977282066,0.5673301202616423,9.799998485689635
1727687383.3291097,-2.6444484571350975e-07,5.386845808329484e-07,0.897024090145231,-0.44198165312460674,-2.436914308092991e-09,-5.895618078227579e-07,-0.48810195443558935,0.06502569575157645,-0.025221941505726604,9.799999888174707
1727687383.3633413,-2.6175529071361546e-07,5.43356761337671e-07,0.9002258342403108,-0.43542329676531183,6.111027103472642e-07,-5.878834992253099e-07,-0.4827227646195166,-0.033461637602827506,1.663544771043631,9.800010136019962
1727687383.4074838,-2.585840674535095e-07,5.469599873875038e-07,0.9033209054671567,-0.42896543187724345,1.1730303006851187e-08,-5.814173782039496e-07,-0.4757847463182919,0.04567873819943456,0.039596975216071216,9.79999892409263
1727687383.4503925,-2.5114912710427757e-07,5.443965679981883e-07,0.9070801995487916,-0.420957850130111,-2.856577132444629e-07,-5.09622068278004e-07,-0.40765560604539125,-0.3028034079805441,-0.8403716884268311,9.800002998665905
1727687383.7160223,-2.482622742935225e-07,5.464320847914188e-07,0.9093451624400202,-0.41604251651312374,6.170560868608625e-07,-4.21376960788358e-07,-0.3478042473810254,-0.05363261785109981,1.6901264463330505,9.800014892796222
1727687383.719524,-2.4916679900228237e-07,5.559946240154268e-07,0.9114310943289183,-0.411452743689988,5.986926925834702e-07,-4.07405572906249e-07,-0.3302848782631822,-0.03640646764545329,1.6930698785765543,9.799997814573125
1727687383.758136,-2.502053414205983e-07,5.681505913484783e-07,0.9140091596286637,-0.4056935495106106,5.414402321576731e-07,-3.8680905255246237e-07,-0.30567107615057393,-0.03965184429544506,1.6004939008049235,9.799997230762976
1727687383.8575897,-2.4865358820721956e-07,5.71350612124267e-07,0.9156227398623232,-0.4020385531844227,2.538721290101545e-08,-3.2338035820453813e-07,-0.2515490260244197,-0.08520651207275083,0.19751027222178277,9.799996682902679
1727687383.9035497,-2.4617386082413893e-07,5.715924224258531e-07,0.9171118035023702,-0.39863007899083924,-5.566537908934179e-08,-3.1092318805440684e-07,-0.24754383619174805,0.05814995083679808,-0.008205781712834785,9.799999991844047
1727687383.9269228,-2.436965363673758e-07,5.717765569587797e-07,0.9185851986169133,-0.39522301663938963,-5.42870564433893e-08,-3.101829406168458e-07,-0.2474578713354962,0.061203882321138686,-0.008394530334485117,9.800000018903807
1727687384.1735945,-2.401901453887341e-07,5.711480813744551e-07,0.9203404101904573,-0.3911183061045299,-5.250678745926015e-08,-2.67633713822619e-07,-0.1970620441406644,-0.40683346106391455,-0.07399331642488552,9.800000084951561
1727687384.1774085,-2.3950144812196317e-07,5.737134429726989e-07,0.9212185670067093,-0.3890454366802397,1.4960448986760743e-07,-1.7345219969026053e-07,-0.1278026077089774,-0.2717735528288292,0.5185350760426818,9.799999381058306
1727687384.2080462,-2.386635081595977e-07,5.742604083228198e-07,0.9217542319618184,-0.38777459413954823,-4.453506521070342e-08,-1.0694243245907125e-07,-0.08507683354286548,-0.0283857276630201,0.024020377473268847,9.7999985766392
1727687384.543733,-2.3596753703598662e-07,5.704556301306073e-07,0.9223993642666226,-0.38623750827716014,-7.476862274297358e-07,-1.007764644202228e-07,-0.08187987458204753,-0.0034964913648297354,-1.9272342026015055,9.799988705196387
1727687384.5454805,-2.3107879644254732e-07,5.605888710291307e-07,0.9228527005845664,-0.3851530773905417,-7.254217326167858e-07,-9.210013925940936e-08,-0.07662767318509592,-0.008243466552111778,-1.926689604931101,9.80000248012745
1727687384.5718489,-2.263872513932932e-07,5.509938507736313e-07,0.9232755346825172,-0.38413836967472664,-7.037935910470978e-07,-8.408729769373409e-08,-0.07164373496077134,-0.012361416329874777,-1.9261628119220349,9.800002434144435
1727687384.6090572,-2.210698890847907e-07,5.401658186055363e-07,0.9238235144627154,-0.38281864391042436,-3.3934858093232505e-07,-8.241366296155406e-08,-0.08036639663180162,0.1928800139607706,-0.9638894024830621,9.800007917035193
1727687384.6722162,-2.193005584287584e-07,5.380204830778404e-07,0.9245076810590946,-0.38116341333133974,-1.6121128158616037e-07,-1.468566574173425e-07,-0.1392568133056991,0.2835377376833179,-0.4796423123248711,9.800000742960345
1727687384.7012851,-2.1683688908303672e-07,5.35413060196746e-07,0.9254546235435357,-0.37885846930161,-1.7058622429125917e-07,-1.945261469930607e-07,-0.17832103147854655,0.2152983389607778,-0.5356214551917299,9.800004507934352
1727687384.9649637,-2.1463154593906573e-07,5.343484716083034e-07,0.9266489120714232,-0.375927910318609,-1.1464320179416464e-07,-2.496593409323423e-07,-0.2272023842580962,0.23012026998021504,-0.394011473711365,9.80000055350495
1727687384.9669995,-2.1302733992006111e-07,5.357568973712421e-07,0.9276859280363512,-0.3733615123750725,3.46475085908804e-08,-1.2001951487485575e-07,-0.08684426507706824,-0.4724261916315212,-0.06836824522241335,9.80000007473994
1727687384.9952111,-2.123969088738629e-07,5.354584270615131e-07,0.927846870863954,-0.3729613709590274,-9.159581948244932e-08,-1.778255964606193e-08,-0.007093087850196453,-0.2551643662387955,-0.3864402848814204,9.799999547607992
1727687385.0280352,-2.1256859196979134e-07,5.358581707453388e-07,0.9278519387778414,-0.3729487628426566,3.531693318134672e-08,2.353533786514846e-09,-0.00015454429112546431,-0.005633564219513879,-0.0017803103433527343,9.800000038844638
1727687385.1339996,-2.1268478556788029e-07,5.365647797053033e-07,0.9281582229195879,-0.37218585844496943,3.422827863955377e-08,-7.435440357024133e-08,-0.08151108052299834,0.3712232566879546,0.050374730318954855,9.799999930543448
1727687385.1644707,-2.1206487770911186e-07,5.373554469594081e-07,0.9288957608018422,-0.370341282554393,3.287627247633732e-08,-1.6375386214999662e-07,-0.1572911751108235,0.345666621032092,0.042804981555866525,9.799999939794947
1727687385.365355,-2.1083011746626982e-07,5.383688183981236e-07,0.9300283021207085,-0.3674879008268678,3.163466876550448e-08,-2.4704793200508076e-07,-0.22778014607617128,0.32208296250797336,0.03325496620676002,9.799999951319544
1727687385.3700728,-2.0837610805919906e-07,5.400923191521505e-07,0.9319758313355,-0.3625204129510068,3.2669098895820924e-08,-3.165851196257699e-07,-0.27495253506853745,0.021235123729996464,-0.007312515706461437,9.799999974910035
1727687385.3990984,-2.0633122251148268e-07,5.414021072436499e-07,0.9334655877618132,-0.3586669715267303,3.151535299879604e-08,-3.1841241130914364e-07,-0.2754824959746806,0.0019279586842386582,-0.010553952567932354,9.800000004595141
1727687385.6557648,-2.0427136628397335e-07,5.426914065521021e-07,0.9349397648955604,-0.35480647685280226,3.055882547788948e-08,-3.187321260233624e-07,-0.27549382594233257,0.0015151468108197815,-0.010614127965239688,9.800000005014637
1727687385.6571808,-2.0202850001448347e-07,5.439836956489558e-07,0.9366286316067327,-0.35032385938465876,2.711368999579075e-08,-3.812243309079562e-07,-0.34127418269783893,0.30928541058445885,0.01634638767181052,9.799999972806052
1727687385.692116,-1.9821251563475915e-07,5.460978804510929e-07,0.9393661823309681,-0.34291569735520233,5.0740067260123766e-08,-4.816320790048785e-07,-0.4241884134313084,0.24308802144763775,0.06090100447974674,9.800000405936926
1727687385.718632,-1.9486247384412986e-07,5.478477601304599e-07,0.941573601203254,-0.33680729433430845,3.135661356459176e-08,-5.049489363024519e-07,-0.43456650432708643,0.018169050387987187,-0.023673086067038968,9.80000000220735
1727687385.7488487,-1.9132622489461735e-07,5.496010944910381e-07,0.9438718009931537,-0.3303120089999779,3.0957897662521314e-08,-5.382380881235934e-07,-0.46372067750227075,0.044804774128065536,-0.024528010722232693,9.800000018508264
1727687385.80455,-1.8639563596899632e-07,5.519114305352407e-07,0.9469398518979519,-0.3214108226042573,2.238426177532146e-08,-5.539267404040877e-07,-0.487397756625172,0.3117661566675842,-0.011901958869218807,9.799999886366653
1727687386.061973,-1.8235280166434317e-07,5.537986636823225e-07,0.9494321422343852,-0.313972303383413,3.412397734648083e-08,-6.181200664029056e-07,-0.5331963466843785,0.0996369834323153,-0.018391578685556527,9.799999821332648
1727687386.0645614,-1.778421713151469e-07,5.556039941810137e-07,0.9521141598030057,-0.3057427459520112,2.0668176248279346e-08,-6.855585637132512e-07,-0.5989596902637606,0.31381932035802906,-0.04032938762992609,9.800000040477693
1727687386.0790288,-1.711579601898581e-07,5.585849972530743e-07,0.9558968685710392,-0.2937025308977436,3.4915134831779527e-08,-7.446623599808703e-07,-0.6370664103058148,0.03108755575766169,-0.04889087751988134,9.799999943666084
1727687386.1288404,-1.6592946420733952e-07,5.606821051513768e-07,0.9586634302801236,-0.28454248794021014,3.2282291334500796e-08,-7.474791270230081e-07,-0.6380674764283798,0.009421515536704934,-0.05673867044122686,9.80000005759784
1727687386.2150905,-1.6066763308285495e-07,5.627149521573994e-07,0.9613430510269653,-0.27535347871749005,3.126213605149804e-08,-7.481911256837525e-07,-0.638127690777312,0.008115167277169585,-0.056992567789009865,9.800000059649857
1727687386.2420874,-1.5536688541599098e-07,5.646138724787589e-07,0.9639638070443666,-0.2660334165254216,1.6092902404131356e-08,-7.600406861724147e-07,-0.6600515243088833,0.3157591872011116,-0.05840436152105432,9.799999807037592
1727687386.462258,-1.4760611716898888e-07,5.670260821427795e-07,0.9676685964973095,-0.2522250728071717,1.550438755317348e-08,-8.636124197379294e-07,-0.7477101303034451,0.31686287789030404,-0.0874762010863919,9.80000009717818
1727687386.4659104,-1.411997947581262e-07,5.693256388169047e-07,0.9705898714837086,-0.24073907321599003,9.90905862340922e-08,-9.391806704086659e-07,-0.8092083617515422,0.2565754679328615,0.11400009801315027,9.800001514818508
1727687386.4958627,-1.3660524829840515e-07,5.807114161248538e-07,0.9733890366464243,-0.2291588604793403,6.590811371888681e-07,-9.433679178264367e-07,-0.7868628734862221,-0.07672745299429616,1.6630927444923542,9.799997882398856
1727687386.8068974,-1.297818828943785e-07,5.932048413560285e-07,0.9767643809221219,-0.21431599138061475,3.7968003936711335e-07,-9.120371345941597e-07,-0.7363049005414685,-0.19861299305821362,0.9491543600910419,9.799997349027823
1727687386.8083026,-1.2509305136292807e-07,6.037901393663243e-07,0.9790292277053194,-0.2037198353090477,6.181045764055902e-07,-8.920159776124598e-07,-0.7154787004148091,0.007486299460476075,1.6899538711714202,9.799997790843271
1727687386.8240454,-1.2018123896685915e-07,6.135414564407887e-07,0.9811282532272245,-0.1933580893547105,5.658725587539719e-07,-8.857634509450769e-07,-0.6995560027808971,0.0643335742747505,1.6036695806515189,9.799997880075455
1727687386.8647828,-1.1284914351387093e-07,6.22947389541878e-07,0.9837095631858596,-0.17976511145460117,6.876888857203842e-08,-8.887913715198317e-07,-0.6926962894811777,0.21235129995471072,0.30108447465340976,9.799993296976181
1727687386.8947418,-1.0668601003061192e-07,6.269334582997678e-07,0.9855028048361241,-0.16965913373505032,1.234332700573128e-07,-8.779691222109376e-07,-0.6755306791703799,0.07388577909370281,0.45154581050825304,9.799992583800625
1727687386.9877572,-1.00053147717565e-07,6.273612344507899e-07,0.9871576275190448,-0.15974923608758607,-6.10650802784724e-08,-8.636495003444419e-07,-0.6684160827849202,0.183763515525235,-0.03980303812829579,9.799999955394798
1727687387.0191488,-9.412596373960744e-08,6.306094097667262e-07,0.9886072878494108,-0.15051787405695433,1.3154581003084924e-07,-7.914273585072296e-07,-0.5993240270084967,-0.14293357824065703,0.4766039557165509,9.799999142924195
1727687387.2519414,-8.681121824110787e-08,6.316683021383734e-07,0.9901637062947035,-0.1399136688688048,8.334706322345767e-08,-6.54839994343198e-07,-0.4931698446113456,-0.1998065192557551,0.36780219923153523,9.800001156244141
1727687387.272559,-8.24795182511929e-08,6.340141228877215e-07,0.9910732113228953,-0.13331875261085557,1.1763892793720697e-07,-5.593386595664878e-07,-0.41934501736143626,-0.1970743138640245,0.4903927065885292,9.799999400572865
1727687387.3046553,-7.871781891480509e-08,6.356321519513056e-07,0.9918274340532695,-0.12758660219199103,-5.34941125140691e-08,-4.912473884035968e-07,-0.3747618490336845,0.022600341488456955,0.06817983063246136,9.799997679713934
1727687387.3450837,-7.368469210019217e-08,6.339681378784665e-07,0.9927138067473961,-0.12049604928248608,-1.1007173769680185e-07,-4.4526203642106053e-07,-0.3402789975375887,-0.007925949549045,-0.0966345290691145,9.800001531721588
1727687387.3754473,-7.02357344478627e-08,6.328781643663461e-07,0.9932893949183155,-0.11565542763917808,-1.2342210636591796e-07,-4.107313017809416e-07,-0.3014496823159178,-0.37180739086011305,-0.18663164412473876,9.79999946195338
1727687387.408903,-6.735261884535185e-08,6.321243361252206e-07,0.9937633360943245,-0.11150978358096592,-8.266975146154617e-08,-3.533587157580946e-07,-0.27538000333497703,0.07461367551658352,-0.01159049396217666,9.799999962421328
1727687387.6936693,-6.411076713645842e-08,6.353660063461303e-07,0.9943795453883773,-0.10587407479074645,7.106093085735455e-08,-3.762347404414466e-07,-0.3001627505309832,0.31083984886405774,0.45552749755474886,9.79999812812997
1727687387.724257,-6.114538967232546e-08,6.365852442868128e-07,0.9948921006096956,-0.10094408424478507,6.151394182332929e-08,-4.362220890560552e-07,-0.34544566865924276,0.3340632879598489,0.4288935888665114,9.799999506734721
1727687387.7566876,-5.804066820846359e-08,6.400690413189645e-07,0.9954187121051882,-0.09561164986775655,8.434060661202599e-08,-4.7183761027738945e-07,-0.36978943802445796,0.3334229526886069,0.5030184739553379,9.799998097822957
1727687388.051364,-5.363256121944322e-08,6.328906220241112e-07,0.9959470055574949,-0.0899419930880771,-7.86311752187186e-07,-4.874653607668464e-07,-0.37485953379715614,0.08872756540596603,-1.9651791381773511,9.800002652995781
1727687388.0790048,-4.761680937855831e-08,6.180438202843007e-07,0.9965731352002074,-0.08271629946295017,-7.553112114765935e-07,-4.4866705511215073e-07,-0.35519672463183893,0.049506036695851414,-1.9620812715693734,9.80000258355365
1727687388.1028643,-4.347429793600431e-08,6.072562316143951e-07,0.9969878756932463,-0.07755756391415097,-7.328283805294518e-07,-4.201467698149792e-07,-0.3398889283879034,0.02209430919247534,-1.9597494030870217,9.80000253291266
1727687388.1411417,-4.059217716630272e-08,6.098349414898579e-07,0.9973585231471199,-0.072635916084412,5.933918878480421e-07,-3.979626141414837e-07,-0.3234023638293993,-0.005082897255919166,1.6943126873974328,9.799997809996087
1727687388.1976354,-3.7504371617192925e-08,6.216759819057746e-07,0.9977889801350955,-0.06646165150353861,5.699888854719631e-07,-3.788603831128497e-07,-0.30114845294955706,0.012375432457099643,1.6976644234189846,9.799997770310947
1727687388.2305346,-3.52457089786283e-08,6.302357717762087e-07,0.9980688015095087,-0.06211817329070629,5.530397588140969e-07,-3.6381944916050147e-07,-0.2846948081202335,0.023388856597210884,1.6999574787185652,9.799997742200526
1727687388.446436,-3.2554469401519526e-08,6.323934263119789e-07,0.9983436846365459,-0.05753162040064769,1.1968179059720768e-07,-4.0324384747898536e-07,-0.32288283377142624,0.2988125998477828,0.5533694947168497,9.80000375810857
1727687388.4724276,-2.815427022584453e-08,6.331053154548599e-07,0.9987256483918837,-0.05046859661026193,-6.042208538669536e-08,-4.644468088352116e-07,-0.3641095797440983,0.19197701347091845,0.03732269597162008,9.799998889128968
1727687388.50476,-2.4636892000857928e-08,6.3288613097279e-07,0.9989825244234787,-0.04509895670736058,-7.189744918550115e-08,-4.5803748574253124e-07,-0.3572720414121793,0.1363585597722315,-0.0029569179524891183,9.799999532493002
1727687388.5320804,-2.113170499097494e-08,6.319221497992461e-07,0.9992096590979345,-0.039749932892900686,-7.534945128045398e-08,-4.561512250865255e-07,-0.3568613360869429,0.14495224235814774,-0.017011066196151392,9.800000029527654
1727687388.5683255,-1.764269444836278e-08,6.309621937668799e-07,0.9994081098863214,-0.034401015872387586,-7.332914512905007e-08,-4.551830321757063e-07,-0.3568364789263431,0.14546656341842873,-0.017165894983571493,9.8000000342933
1727687388.6082916,-1.3247607605058072e-08,6.330335841474036e-07,0.9996169190891994,-0.027676977259379676,-2.6493365760842433e-08,-4.1309963105575504e-07,-0.3197666980867177,0.04396494676420302,0.11426276847380783,9.799997007710207
1727687388.8333578,-1.03063650078415e-08,6.381893030796046e-07,0.9997357194070329,-0.022988939542631148,5.382613890877183e-07,-3.9824289568221565e-07,-0.30738398995800853,0.06109869690186869,1.6970062367963281,9.799997725011591
1727687388.8619068,-7.3888601754284735e-09,6.421199565723724e-07,0.9998316534509343,-0.018348426558108644,7.134019762546935e-09,-4.062245398024162e-07,-0.31660449295282855,0.24888815278259135,0.28423382101704775,9.799995238598093
1727687388.923944,-3.183630157831823e-09,6.402578274899925e-07,0.9999284151881596,-0.011965136810161758,-9.247545504948971e-08,-4.137660449175941e-07,-0.3194596211078682,0.15682335927162858,-0.013676435532749857,9.800000038230488
1727687389.21474,-1.0326243698941456e-10,6.41904357756569e-07,0.9999729137207485,-0.007360151114224778,4.814284628633138e-08,-3.90335699234958e-07,-0.29527660906099445,-0.001672054583577272,0.3625436011933984,9.799993331941927
1727687389.2181425,2.775653977924614e-09,6.406416680456269e-07,0.9999955374420393,-0.0029874898487327606,-9.326801375914762e-08,-3.767576766506389e-07,-0.29106659280199865,0.14392325556549485,-0.010668885774518735,9.79999998131653
1727687389.259558,6.501267755258624e-09,6.388611119147166e-07,0.9999963661417874,0.002695867729006207,-9.025900591133128e-08,-3.6549764263468735e-07,-0.2834826149505605,0.1417308185048724,-0.010951502501544414,9.80000002895672
1727687389.2899523,9.244571395783298e-09,6.375022121978639e-07,0.9999760788560341,0.006916770583408616,-8.860225745551639e-08,-3.60490998566626e-07,-0.2799943888075919,0.13134406858737419,-0.01454987830928234,9.800000149927163
1727687389.37859,1.1947917331681227e-08,6.36207553229044e-07,0.999938251993066,0.01111270447042817,-8.516524702956447e-08,-3.5881025439673365e-07,-0.2797102157964937,0.14112780373964104,-0.010505980086699116,9.80000002865166
1727687389.4140499,1.4525979924816231e-08,6.349366534446071e-07,0.9998897292476894,0.01485023045541517,-4.544060535249938e-08,-2.9899334091071484e-07,-0.22288877009184788,-0.18621250609383527,0.053870481951872655,9.800001445533347
1727687389.6347926,1.7152182733990675e-08,6.285636100343261e-07,0.9998176985344174,0.019093708307842294,-3.3536089117741905e-07,-2.6213024327470577e-07,-0.2065031090806661,0.0458143437423196,-0.7402157718138414,9.800009629074506
1727687389.6408286,1.8974391740785115e-08,6.238193683787793e-07,0.9997546798095119,0.022149045094327136,-7.633031982039356e-07,-2.5324556049803865e-07,-0.20079942651059998,0.04060157081122071,-1.9406432704240322,9.799988819573306
1727687389.671926,2.07970539056286e-08,6.218482509736443e-07,0.9996826320498959,0.02519196652516098,-6.095522306051208e-08,-2.514623724622096e-07,-0.20316833641744292,0.09349940117489489,-0.015381568656397455,9.800000471170828
1727687389.7266338,2.317155612649182e-08,6.174142096088934e-07,0.9995723368143676,0.029242836303667086,-7.085746328370295e-07,-2.4914788934131224e-07,-0.2008350064548182,0.06047704346081796,-1.8215836867809265,9.799989365815025
1727687389.7466156,2.5006541117678588e-08,6.155957975033937e-07,0.9994751070380243,0.03239614808816177,-4.865468054760684e-08,-2.588937671180138e-07,-0.21144876107403476,0.09856404975018962,-0.015127034361702225,9.800000475326629
1727687389.7768137,2.7028974243906984e-08,6.186862448512442e-07,0.9993741256990776,0.035374523075518804,2.1007367653971364e-07,-2.3720611653678462e-07,-0.18243416950285662,-0.1853000305217703,0.6751247949472716,9.799994153018158
1727687390.0505192,2.9378631166867316e-08,6.237950468581104e-07,0.999246061402959,0.03882407462237608,5.227349703966397e-07,-2.087279702236663e-07,-0.16613875428898106,9.216164707298562e-05,1.5900889334655908,9.799997029747226
1727687390.081076,3.080904974613331e-08,6.260138912795124e-07,0.9991700409846802,0.04073363718451706,8.665644110700953e-08,-1.4423344169171675e-07,-0.10911212306833237,-0.1735185423914544,0.3864695280747178,9.799998226048729
1727687390.117458,3.1732719795667225e-08,6.253731623923994e-07,0.9991034221280146,0.04233617710301668,-6.410088665504418e-08,-1.2948365671916495e-07,-0.10666861385017319,0.05152697669579342,0.001754884961892273,9.799999853775233
1727687390.395626,3.264235964356053e-08,6.245946956961281e-07,0.9990394639156626,0.04381951093649644,-2.059345565806113e-08,-1.1564198059614551e-07,-0.08369341360280279,-0.267702116464147,0.07349953167050735,9.800000734585375
1727687390.3988426,3.3413130559174416e-08,6.233549495035371e-07,0.9989770806488041,0.04521938011520571,-6.132145451269702e-08,-7.787893557054533e-08,-0.06649405659910426,0.024985638030380033,-0.0017901277171247965,9.80000001473461
1727687390.4299788,3.391031893922529e-08,6.224347321767183e-07,0.9989316260368248,0.04621262276733651,-5.950878400232028e-08,-7.7201768128653e-08,-0.06626060177360495,0.033037480719524275,-0.0006226237867878214,9.800000012004446
1727687390.4599593,3.4408376106996924e-08,6.215405050151684e-07,0.9988853070547005,0.04720321334241406,-5.775674107714567e-08,-7.697613102422954e-08,-0.06582183564216765,0.027137214616637165,-0.001448610934763162,9.800000011920245
1727687390.5291572,3.506804407245076e-08,6.203876120144776e-07,0.9988224484006499,0.048515116928080415,-5.548457433875549e-08,-7.652145903991148e-08,-0.06565538154263001,0.032878261869598496,-0.000590432513746595,9.800000011138199
1727687390.5612261,3.547531710647776e-08,6.195520325898958e-07,0.9987868299421148,0.04924295212308444,-5.382702429003025e-08,-4.9136662596584935e-08,-0.04251281671817295,-0.02265906589843686,-0.006830739172167956,9.80000003804612
1727687390.7913816,3.573431300453019e-08,6.185754994081041e-07,0.9987635487498406,0.04971291269117323,-8.712801887766152e-08,-2.7784406994387163e-08,-0.011146727194141148,-0.40233919969348786,-0.15560927810693864,9.79999947223465
1727687390.7974236,3.5462075836008957e-08,6.177310695700093e-07,0.9987764384028284,0.04945327179245257,-4.9200618841701857e-08,2.5522819265513676e-08,0.014261822790459601,-0.0064182317212137475,0.0009846415840842517,9.799999969219906
1727687390.8185906,3.5179046401300184e-08,6.170152567426559e-07,0.9987869819258022,0.0492398693658429,-4.805468182927774e-08,2.5208420675697142e-08,0.014242077549244761,-0.007099980583410267,-4.338715196244848e-06,9.800000009323844
1727687390.863474,3.490156547205076e-08,6.163389948690877e-07,0.998797167393667,0.04903282987964286,-4.294708173079969e-08,2.422292985684974e-08,0.01297453624962126,0.010635685144248078,0.01265169970175305,9.800000067811338
1727687390.89443,3.46431988595809e-08,6.156666819157453e-07,0.9988063779743361,0.04884484944604767,-4.5289530299656956e-08,2.2516763511918837e-08,0.012496076261662081,-0.005875471968211879,7.996723158656252e-05,9.80000000738031
1727687390.9309585,3.42915854946331e-08,6.147974192336437e-07,0.9988216009279899,0.04853256143320983,-4.349580701460262e-08,3.0104751069248246e-08,0.01954736374498281,-0.03052803692590233,-0.0031118507866916816,9.800000020174329
1727687391.1721206,3.397700792705362e-08,6.141695478817077e-07,0.9988410604231759,0.04813040631790788,-4.2523994627676595e-08,4.3342267567410094e-08,0.04045492593464653,-0.2950908997753586,-0.04063201027069423,9.800000023727247
1727687391.2073474,3.341979137402013e-08,6.135759513357169e-07,0.9988749732951863,0.0474213846715022,-4.059305884636937e-08,6.673133395412402e-08,0.04814115900766962,-0.02995694705565613,-0.001165597811374397,9.800000012211132
1727687391.272483,3.2665518116447954e-08,6.128154859679143e-07,0.9989169796138365,0.04652814028942853,-3.9022488407648007e-08,6.028930559062539e-08,0.04296278381451134,-0.017353206355046554,0.0003968007862120296,9.800000005552244
1727687391.510804,3.213786733577367e-08,6.122622626722795e-07,0.9989478250567743,0.04586112530198594,-3.795878588387774e-08,6.250221537464275e-08,0.04781221889671222,-0.09079197029219369,-0.010084737482635758,9.800000011617987
1727687391.5229275,3.1556426039788e-08,6.117288766278947e-07,0.9989821402919346,0.04510746476327654,-3.672095462603306e-08,6.93740218267024e-08,0.05211918943324781,-0.06033354835563797,-0.005375253054812616,9.800000010441961
1727687391.5607395,3.0736675572218645e-08,6.110459733978043e-07,0.9990293983732328,0.0440483959485638,-3.5185710797038365e-08,7.200808892259318e-08,0.05309429806109495,-0.02669721273405912,-0.00037144229731725565,9.800000007646737
1727687391.591596,3.012401337224277e-08,6.105519252679037e-07,0.9990642614899345,0.04325044986122051,-3.4148032427630095e-08,7.201221564080352e-08,0.053543175145652336,-0.03270158830661815,-0.0012262978230851344,9.800000007612034
1727687391.6716905,2.951056219836096e-08,6.100730027780153e-07,0.9990987709920067,0.04244579840088136,-3.311751875334899e-08,7.226794120464318e-08,0.05371057895195217,-0.02692699318544064,-0.00036832826076631757,9.80000000717697
1727687391.7023437,2.8971610005715028e-08,6.09259698288899e-07,0.9991136419941918,0.04209430342373438,-6.678371979215307e-08,1.6737329428856926e-08,-0.006587647315387874,0.40591617869957075,-0.03863822112811734,9.80000005406973
1727687391.9701855,2.915937532408988e-08,6.085236284165097e-07,0.9990856366290002,0.04275383820493922,-1.215564589723899e-07,-4.2893008230130734e-08,-0.043577189360483964,0.17513744092636493,-0.22793225897858918,9.79999849617263
1727687391.9772894,2.952415428654489e-08,6.079868043145945e-07,0.9990549816253896,0.04346428061203428,-2.986479418060048e-08,-5.611470864809804e-08,-0.04786350017464655,0.027145649073305952,-0.0005193333039397139,9.80000003569605
1727687391.9854085,2.989762517980697e-08,6.072151714531934e-07,0.9990227316632807,0.04419933958405997,-9.2960697166822e-08,-5.820890994753174e-08,-0.0512708534820715,0.07032509981709531,-0.17197722294293952,9.799998952505462
1727687392.0276,3.046898665723177e-08,6.065927822005184e-07,0.9989758375300847,0.04524683448260719,-2.6928940022383044e-08,-6.21437645418259e-08,-0.05254205487492142,0.026332359387061927,-0.00040520550228935476,9.800000008528157
1727687392.0587194,3.091189198534531e-08,6.065127447514441e-07,0.9989408482148341,0.04601284350546819,-2.5608901753352387e-08,-6.02735004866081e-08,-0.050951605421203146,0.024146118400000607,0.002691188727156442,9.799999860708448
1727687392.100602,3.1271734678858134e-08,6.053883403593561e-07,0.9989102451604632,0.0466724984663916,-4.2578701384881065e-08,-4.72872584455361e-08,-0.03930700205190807,-0.01480377335115486,-0.05461816444445066,9.800002248093115
1727687392.3698575,3.1507669948522116e-08,6.014141265352544e-07,0.998874257558768,0.04743645840550309,-7.172094989015008e-07,-4.3244888598187696e-08,-0.037604192139939326,0.007670856717024465,-1.9245931486104042,9.799988642606435
1727687392.397671,3.129340922230093e-08,5.908698559242275e-07,0.9988483893959441,0.047978067914188904,-6.958605968639848e-07,-3.968024396210918e-08,-0.03543158181412767,0.004916728678703628,-1.9243228990289987,9.800002416291568
1727687392.4321647,3.106204704234368e-08,5.806407590735948e-07,0.9988237606118844,0.048488093763263795,-6.751214210290596e-07,-3.637035806977061e-08,-0.033357023073522445,0.0024488992395664574,-1.9240486460527855,9.800002372469015
1727687392.7300096,3.081579527944009e-08,5.707174244651918e-07,0.9988003484237531,0.04896798942434344,-6.549981108244571e-07,-3.330049392815605e-08,-0.031378717735402996,0.00024874861432382176,-1.923779150562732,9.8000023299618
1727687392.7345762,3.1778133111607696e-08,5.838708633459159e-07,0.9987711983725068,0.04955898809705994,6.492449973558231e-07,-3.188575996061707e-08,-0.02854789631230744,0.0016849985900295502,1.7284933474183561,9.79999784875939
1727687392.7508793,3.247339218361953e-08,5.933939221859079e-07,0.9987508600193058,0.04996718533541439,6.299134801270262e-07,-3.020692008030407e-08,-0.026613398950013606,0.00315441300954891,1.728461563190149,9.799997819645407
1727687392.77966,3.299737660027912e-08,5.998781497736092e-07,0.9987350003505846,0.050283188784685684,1.3221583480875545e-07,-2.055147749935382e-08,-0.015111910998012906,-0.08844554793253244,0.38628526064563823,9.799991401694683
1727687392.838873,3.3062957861754895e-08,5.991194592414439e-07,0.9987226746532081,0.050527409721677075,-1.219575823696832e-08,-1.1710787078967608e-08,-0.01193912693092696,0.004764570769969514,-0.0007869427095531455,9.800000033078328
1727687392.871411,3.305425506911373e-08,5.97629460671776e-07,0.9987134135818908,0.05071013243177985,-2.742278032847221e-07,-1.190506625801873e-08,-0.012744823151588217,0.016475099716817456,-0.7264789623716679,9.799995693884117
1727687393.132112,3.311506366704565e-08,5.972840156988395e-07,0.9987034939544549,0.050905119220038986,-8.997406129646414e-09,-1.3138638130240211e-08,-0.013047891506416472,0.006065672824182686,-0.0020192232837287706,9.80000009327733
1727687393.1365669,3.317838198362499e-08,5.986708689563042e-07,0.9987031524875082,0.050911817991048325,4.234265132272553e-09,2.770551569111988e-09,-0.00019020157995002228,0.003406564678669271,0.04226648125516151,9.799998117818625
1727687393.159903,3.313116709884719e-08,5.98523529806697e-07,0.9987029444739352,0.05091589829053833,-1.0652045431758904e-08,2.4230898503907296e-09,-0.0002821901012528376,0.00020014309519129277,0.00013917995672343506,9.79999999671544
1727687393.4724152,3.3085213819756726e-08,5.983684795345752e-07,0.9987027275877336,0.050920152282388886,-1.0376518757254209e-08,2.3353889915021864e-09,-0.00028417981352227636,0.00013112068362661723,1.218634119105037e-05,9.800000001975368
1727687393.4739716,3.295930740483995e-08,5.977230168164246e-07,0.9987100601002855,0.05077613469067538,-6.127852017327309e-08,1.558933448027622e-08,0.010962563122126122,-0.017251806772437418,-0.14518617270929374,9.799999278318728
1727687393.5119576,3.2755465337404666e-08,5.975157346810466e-07,0.9987214861368883,0.05055089641309546,-8.57885280236002e-09,1.644879068537334e-08,0.011307638147623308,-0.005190725265373008,-6.874623176679142e-05,9.800000004254336
1727687393.5428767,3.260486522487865e-08,5.973969347511243e-07,0.9987300473198768,0.050381470602578415,-8.302701883506777e-09,1.6365456950715452e-08,0.011309682694110965,-0.005119788974742026,-1.6332345184262676e-06,9.800000001617985
1727687393.5735164,3.246063895787361e-08,5.976603053073909e-07,0.9987405095230812,0.050173644846851106,-7.476199429217241e-09,1.9717746778200618e-08,0.014177553085069088,-0.008656173968041187,0.003319047032667458,9.799999838112248
1727687393.6318636,3.220046754631744e-08,5.972028961410275e-07,0.9987569086822333,0.049846136852830125,-1.536421224500325e-08,2.5046381893205306e-08,0.019091460144012078,-0.023003772368634816,-0.022734586587332746,9.800000937010312
1727687393.9323075,3.1978252814842053e-08,5.970920751596374e-07,0.9987714075568852,0.04955477218675175,-7.598346317100407e-09,2.6157204432198438e-08,0.019490904280900737,-0.009135512283978254,-0.0001356427718559657,9.800000004322238
1727687393.934697,3.124129832840103e-08,5.867036363281412e-07,0.9987851776714769,0.04927645343783221,-6.87126535101206e-07,2.511404947815202e-08,0.018127910648677175,-0.00332001395260186,-1.9217637821688685,9.800002395330893
1727687393.9546602,3.031444429026325e-08,5.733308182721416e-07,0.9988019202430536,0.0489359184899974,-6.599748409081076e-07,2.233673579350183e-08,0.01641347758072921,-0.001678624828532369,-1.9215743099738543,9.800002338196649
1727687393.9902937,2.9658365146148137e-08,5.636484252132378e-07,0.9988133451590833,0.04870217173599817,-6.403145004573676e-07,2.043330190517317e-08,0.015202901419758897,-0.0006379403617788636,-1.9214323112166987,9.800002296839175
1727687394.0619195,2.9033558304719817e-08,5.542539028841216e-07,0.9988238655878463,0.04848593127747386,-6.212391271550793e-07,1.8673009490845697e-08,0.014055048314125452,0.000253042018676185,-1.9212902129826428,9.80000225668266
1727687394.092914,2.8438170938458707e-08,5.451387636883272e-07,0.9988335375150432,0.04828627480854958,-6.027279616454913e-07,1.7046742959456028e-08,0.012968218846344397,0.001005996827187621,-1.9211478616586495,9.80000221777293
1727687394.3561263,2.8960166841617266e-08,5.593321081775052e-07,0.9988454414391174,0.04803940170298726,6.994400026337785e-07,1.4676869930341544e-08,0.012005664330073886,0.0023970262872186365,1.73090576597956,9.799997921391832
1727687394.35745,2.933637663784869e-08,5.696081010378711e-07,0.9988537608956984,0.04786610851315315,6.786070603656358e-07,1.4168421088947423e-08,0.011352645699348001,0.0016532269727670842,1.7307152458836477,9.799997890163796
1727687394.3759534,2.9631258817083178e-08,5.780616180158008e-07,0.998864824937745,0.047634667016292986,3.548201858181525e-07,2.0723941303834945e-08,0.024246859048406212,-0.18858003671054271,0.8629992478771858,9.799992865503835
1727687394.7102911,2.929460719345788e-08,5.790715566878032e-07,0.9988946491568592,0.04700510488722198,2.93108929831346e-08,3.9613906269987e-08,0.03223404993981402,-0.011757621435006435,0.00015957710411879114,9.799999971357634
1727687394.7146056,2.9103352251579372e-08,5.81230194464153e-07,0.9989107555743049,0.046661573029984804,3.829916582741686e-08,2.0904945399539605e-08,0.013513569642710844,0.06474205894852975,0.04699422343245615,9.799998297079467
1727687394.7192912,2.8986464799444765e-08,5.816094353288627e-07,0.9989190080664565,0.04648457080782109,2.395448521969028e-08,1.5223495058418164e-08,0.011610392141459633,-0.002252918470471975,0.0003189270371138147,9.79999998968164
1727687394.7746415,2.896362090820865e-08,5.815668152130132e-07,0.9989136762950944,0.0465990054644973,2.3681215343266462e-08,-7.450163182900985e-09,-0.007448068998057474,0.0064496852237776745,-0.00010040248585201704,9.800000024490814
1727687394.8044097,2.9081455339523975e-08,5.819340174695524e-07,0.9989018340780507,0.04685217044243628,2.323415623132278e-08,-1.990081773547034e-08,-0.0180214767057377,0.014017987677257242,0.0013591606181697967,9.799999982577893
1727687394.834303,2.9245880535406413e-08,5.82267511753502e-07,0.9988889887553016,0.0471252389179162,2.2457297337497577e-08,-2.0609663045792705e-08,-0.018248900442740586,0.006013563273827654,-1.1565836639122036e-05,9.799999995402183
1727687394.8677166,2.9443752564545854e-08,5.831907063019553e-07,0.9988756046679335,0.0474080836875832,2.268940146866831e-08,-2.1492167063734496e-08,-0.018953316685264468,0.006687384394672144,0.005846018387227331,9.799999734011303
1727687395.1445107,2.9392810098399344e-08,5.824382406113778e-07,0.9988917190246893,0.047067331171002535,1.9285404023371207e-08,4.633018137455163e-08,0.044677989927996715,-0.17791820499518032,-0.03153342223290061,9.800003463782895
1727687395.1539183,2.8960421001253034e-08,5.827840416527464e-07,0.9989258419892405,0.04633748165088136,2.1751067848764973e-08,5.969894244905804e-08,0.049189989757799556,-0.01903727148290719,-0.0008458051017781619,9.799999999113941
1727687395.1869657,2.850804786664408e-08,5.831238533953461e-07,0.9989598194832886,0.04559911246476395,2.1125803937706302e-08,5.994530205527684e-08,0.049287029808173816,-0.015620383784041576,-0.0003160347253648704,9.79999999622046
1727687395.2603545,2.7925931705941686e-08,5.837988033726612e-07,0.9990022407888073,0.0446600817128725,2.5794287572224643e-08,5.452915075787314e-08,0.04415080447789127,0.0013454915048207372,0.018389209101923255,9.799999250203113
1727687395.3021874,2.752238932340301e-08,5.841114139359062e-07,0.9990313496479879,0.044004118218394506,1.9198108586850216e-08,5.324506981074669e-08,0.04372904142989702,-0.013526253657726231,-0.00014144300956252324,9.799999994212632
1727687395.3257904,2.667015191617723e-08,5.741213296486635e-07,0.9990587014893781,0.04337869267309241,-6.610691229466054e-07,5.031939074166957e-08,0.04075475680373939,-0.00029049974364859604,-1.920641713774399,9.800002339594656
1727687395.5775669,2.6474315576780396e-08,5.808074138588619e-07,0.9990918537124748,0.042608307230311004,6.563440237466457e-07,4.471817565974273e-08,0.037335514018400115,0.0027208631451904365,1.7314797354606815,9.799997855523392
1727687395.5859678,2.6176734243453414e-08,5.845876058640746e-07,0.9991332260296646,0.041626874050459395,1.547373591172701e-07,8.752310187144852e-08,0.0809219521933651,-0.2213246669426915,0.3453363967971199,9.799998138363053
1727687395.6337395,2.543210699595521e-08,5.851766350402821e-07,0.9991846504233761,0.040373683978213615,1.8543504957489132e-08,1.011580469442066e-07,0.0839368433895184,-0.02850869581975501,0.0014975405055236534,9.79999987446311
1727687395.8882477,2.463976788384536e-08,5.848409169991758e-07,0.9992341380660508,0.03912974984654649,2.5811123557877136e-09,9.944367199871788e-08,0.08231890586377777,-0.020535747444978263,-0.04323779956890943,9.800001934658152
1727687395.902936,2.363601877982504e-08,5.852207764546007e-07,0.9992971120676102,0.037487088617163655,1.7566597881008936e-08,9.894609221188142e-08,0.08218095254063129,-0.025298317869625032,-0.0008950902757368547,9.799999998364228
1727687395.9351757,2.2884350624197327e-08,5.855049957398263e-07,0.999342563278653,0.03625522333827591,1.7051590111164585e-08,9.890598200442661e-08,0.08218014191403329,-0.02532684473469712,-0.0008824088428992484,9.799999997705617
1727687395.9691236,2.2132925804986784e-08,5.857806624218496e-07,0.9993864958773299,0.03502330449412844,1.6546978836654063e-08,9.886968492692142e-08,0.08218012448391218,-0.0253274595531766,-0.0008824485494572429,9.799999997826482
1727687396.031025,2.1131398962546927e-08,5.861352993450504e-07,0.9994427103622197,0.033380663616469575,1.5896279673127007e-08,9.882304367724545e-08,0.08218012410260256,-0.02532747391941039,-0.0008824443524231442,9.799999997931325
1727687396.0615594,2.0380539924217313e-08,5.863918819918501e-07,0.9994830994090097,0.03214862353841558,1.5426194247403012e-08,9.87889397634481e-08,0.08218012410054112,-0.025327474699787397,-0.0008824399869341622,9.799999998024685
1727687396.3204715,1.9509921500793697e-08,5.831769149104173e-07,0.9995240529912035,0.03084910844249389,-1.1203299964625982e-07,1.0589671169303984e-07,0.09183359778030353,-0.1071867473771158,-0.38007560773014537,9.800009095735454
1727687396.3324075,1.8381592699315895e-08,5.834483770234153e-07,0.999580453272521,0.02896407145344526,4.531747764580374e-09,1.1308403134678393e-07,0.09579298938213457,-0.05186740799517416,-0.05144486146320513,9.799999728033894
1727687396.3597827,1.7512623880544947e-08,5.837752176502071e-07,0.9996212851977128,0.027518833175323054,2.0964322949630228e-08,1.1500664615784413e-07,0.0964584881415981,-0.0282432141141186,-0.0014367151456059473,9.800000003546938
1727687396.445207,1.6647187610122325e-08,5.839917909062464e-07,0.999658992239251,0.02611320039488413,1.774683112858219e-08,1.1021054334559939e-07,0.09188026121787676,-0.012690158676124769,-0.006984829510137028,9.800000344503118
1727687396.478052,1.581948587384501e-08,5.843113338963798e-07,0.9996939074469176,0.02474048126396261,1.9959816586125252e-08,1.0907797837043341e-07,0.09150418546121926,-0.025953705217431355,-0.0010819753121365213,9.799999998187337
1727687396.5188873,1.4601581616384978e-08,5.838086518998401e-07,0.9997426049790727,0.022687524971157724,2.0692017207446836e-08,1.233788961757021e-07,0.10378630035243777,-0.03183917240239213,-0.003077923973796391,9.800000055938384
1727687396.7482123,1.3590049574698326e-08,5.820591356286418e-07,0.9997793567048225,0.021005663677960973,-2.7587523751383253e-08,1.3773812670817825e-07,0.11783006897781376,-0.0740363864043639,-0.15158627896802185,9.800006485871874
1727687396.763036,1.2525209398359494e-08,5.824024502338442e-07,0.9998152177901347,0.019223170262107625,2.409948860569636e-08,1.4101096217369518e-07,0.11897927009714464,-0.03293092548200189,-0.0024230543055777367,9.800000016145942
1727687396.80972,1.1099174992457501e-08,5.82898033071686e-07,0.9998581379260943,0.016843515744144888,2.3296154629825954e-08,1.4110071991675485e-07,0.11900437108350148,-0.03204137696734159,-0.0018890119802726455,9.799999997676393
1727687397.0888991,1.001950166712979e-08,5.832923259896557e-07,0.9998872897466463,0.015013587271746287,2.34767064925641e-08,1.4640283057755453e-07,0.12406415317566252,-0.048514081016486764,-0.001694758842865599,9.799999890467681
1727687397.0941374,8.920257784531798e-09,5.819000414728988e-07,0.9999119124224736,0.013272806609492205,1.9231664047845624e-08,1.3636298107657003e-07,0.11511307147244891,-0.02294786994398684,-0.01752959335454568,9.800000749229376
1727687397.1315455,7.547703998135913e-09,5.824032122269553e-07,0.9999397810139459,0.010974258309458806,2.4335644945125602e-08,1.3580431423861616e-07,0.11491831471606875,-0.029796476674274156,-0.0017622148489894198,9.799999997548694
1727687397.1728532,6.51840798048672e-09,5.82769493520479e-07,0.9999572124018972,0.009250587283381295,2.3616145671782804e-08,1.3582497441193928e-07,0.11491717013330646,-0.02983700584517022,-0.001761642570235856,9.799999997434334
1727687397.2052112,5.488645036764181e-09,5.831234468232388e-07,0.9999716725550963,0.007526890926721375,2.2916201873714226e-08,1.3584823911913614e-07,0.11491714554302776,-0.029837877496964645,-0.0017617473589702005,9.799999997568365
1727687397.2468095,4.4393250565925926e-09,5.814100245141331e-07,0.9999832722493109,0.0057840488606133444,-2.536054863044484e-08,1.3764932329925557e-07,0.11706488904215812,-0.03596301499628367,-0.14477081598925853,9.800006393059704
1727687397.4697802,3.061714714908724e-09,5.791459600748489e-07,0.9999935975047798,0.003578400356777145,-4.08853409278448e-08,1.2138784021296764e-07,0.10153809513221435,0.025752712124015125,-0.19130123763254794,9.80000840616941
1727687397.4875216,2.169306083547673e-09,5.79061646136479e-07,0.9999978878967167,0.002055286298916048,-6.651726596097462e-08,1.191905233153295e-07,0.10384336216270836,-0.07409693659335959,-0.2759386154459262,9.79999843312632
1727687397.51284,1.244029904336242e-09,5.794399203422448e-07,0.9999998850538847,0.0004794704180401954,3.0004565131679127e-08,1.2299800363826237e-07,0.10519873973249322,-0.025193062128832034,-0.002386098198791269,9.8000000301215
1727687397.605512,7.760648681533436e-12,5.795054308263717e-07,0.9999987261552165,-0.001596147740069609,1.698795920536915e-08,1.1970782946334843e-07,0.10198687045368571,-0.013509987585380202,-0.03607949899218648,9.800001615701985
1727687397.6375806,-8.937692030333909e-10,5.799342487933335e-07,0.9999951253050986,-0.003122397428837631,2.9206036831170798e-08,1.189559754746317e-07,0.10172212313776499,-0.022824937840438733,-0.0014537721627052764,9.800000000251078
1727687397.667024,-1.7676872388632076e-09,5.734572370432814e-07,0.9999893583955708,-0.004613360519793441,-6.583759388053554e-07,1.1498146833694141e-07,0.09709215677198385,0.008096099802284455,-1.9197273722984358,9.800002332337272
1727687397.8943818,-2.7898412030862004e-09,5.60609041531351e-07,0.9999792337473665,-0.00644453828566105,-6.323679724578318e-07,1.0172717128538547e-07,0.08832007493079436,0.01483859196750741,-1.9194242753955824,9.800002278085438
1727687397.901208,-3.456582943612274e-09,5.513065257119415e-07,0.9999702990064697,-0.007707211208152043,-6.135334094996895e-07,9.268262172989616e-08,0.08214849819399542,0.019014683199695532,-1.9192270930012745,9.80000223844817
1727687397.931292,-4.0636143748150225e-09,5.449970227931098e-07,0.9999618809975059,-0.008731354513037026,-1.8263281618948803e-07,6.969744792102874e-08,0.052251252851711456,0.27990102173044074,-0.7361073371549169,9.800006497895676
1727687398.2481134,-4.315562797918029e-09,5.442058312438122e-07,0.9999600819574292,-0.008935014907386796,7.188697549020681e-08,5.1330777113633344e-09,0.0023148801481313154,0.08433135343963157,-0.06794410053432214,9.800003536388942
1727687398.2529116,-4.134065976493675e-09,5.461597892458658e-07,0.9999669820868544,-0.008126175964744076,9.718091907576163e-08,-7.259611766373255e-08,-0.08087370075944167,0.371440157404995,0.05040955055056735,9.799999923940147
1727687398.2797673,-3.379361588555423e-09,5.475996014977437e-07,0.9999777587230736,-0.006669487152563158,9.431984743186634e-08,-1.0966117584498153e-07,-0.09904520326550834,0.014663220269329197,0.0007335461502073499,9.799999974448438
1727687398.3098538,-2.54320211825156e-09,5.489911574775335e-07,0.9999865908222134,-0.0051786267933833785,9.147754677672315e-08,-1.109804256532887e-07,-0.09943368773482805,0.0005057972976608492,-0.0013292822521076407,9.799999983158697
1727687398.368956,-1.4207176948252848e-09,5.507806430992048e-07,0.9999949125209192,-0.0031898169188060987,8.786297745899551e-08,-1.11289191563497e-07,-0.09944212410522851,0.00019835305140886563,-0.0013734997021916716,9.799999984030848
1727687398.3991845,-4.0246132314286815e-10,5.52074206340644e-07,0.9999995516758927,-0.0009469148372173719,8.519205092827547e-08,-1.7815081523081016e-07,-0.17397037841065022,0.34007823129444253,0.04074813865895323,9.79999993651782
1727687398.644429,1.2339768899635833e-09,5.533255181363003e-07,0.9999972117526965,0.0023614585590948645,8.265975449372624e-08,-2.5676236710813253e-07,-0.2432948936316402,0.3169258913748627,0.03081390838350231,9.799999948053863
1727687398.6487405,4.296021780345432e-09,5.550131168563659e-07,0.999967122641384,0.008108861572575454,8.37837540428491e-08,-3.33714372863944e-07,-0.2998449499542119,0.04011320767841506,-0.002819886317532489,9.799999786682278
1727687398.6734462,6.853176212680939e-09,5.561956147867359e-07,0.9999203633996167,0.012620097403302888,7.975740166094162e-08,-3.3729446441928953e-07,-0.3008748526094706,0.0026160011537385464,-0.012537050749388852,9.799999997435553
1727687398.7081287,9.423705623484734e-09,5.573291533784038e-07,0.9998532191757059,0.01713301210139956,7.736271906830581e-08,-3.3798763132044104e-07,-0.3008968716229029,0.0018138075635506187,-0.012663465202313389,9.79999999875696
1727687398.8052728,1.2002803575995697e-08,5.584160448869547e-07,0.9997657061385197,0.021645619164970653,7.504407470439815e-08,-3.3860065969594105e-07,-0.30089734236144483,0.0017966571705724512,-0.012665918844075292,9.799999999263852
1727687398.8463597,1.560727087820478e-08,5.597458853011004e-07,0.9995989291755849,0.028319265363178248,6.924405914124818e-08,-3.988931893741341e-07,-0.36667626550942173,0.3096270930600769,0.012152837860991255,9.799999971997972
1727687399.0744932,1.8818163814724106e-08,5.607657215084608e-07,0.9994177559576969,0.034119628898433896,6.701040711510468e-08,-4.4042876877247606e-07,-0.4028323881294063,0.3102534024182587,0.005673747302996817,9.799999861361744
1727687399.0792537,2.2446062982220148e-08,5.616137524428099e-07,0.9991667157732045,0.040815120858236686,6.511918476345963e-08,-5.154493870952973e-07,-0.4686038060867102,0.3111573919585318,-0.007714283395480011,9.799999995154693
1727687399.1217515,2.797353987618854e-08,5.629099615631403e-07,0.9987239923889597,0.05050135667820643,7.051009750405934e-08,-5.5210634376328e-07,-0.4873920985397707,0.014549313856089685,-0.031108415315563673,9.800000003243749
1727687399.412734,3.2186058535315366e-08,5.636715735553898e-07,0.9983214517085539,0.057916138149967544,5.999385342383694e-08,-5.642776945868918e-07,-0.5096995392723442,0.3122123981133096,-0.017122938999336135,9.799999870905431
1727687399.4172006,3.6759564218005025e-08,5.64267277042611e-07,0.9978061586134868,0.0662032463907718,5.83487150229982e-08,-6.39818242063319e-07,-0.5754625479769726,0.31318042053770984,-0.033864133445873815,9.80000002615233
1727687399.4557476,4.371098140501486e-08,5.653363924716072e-07,0.9969216596676568,0.07840411012927107,7.100163804014994e-08,-7.050045187655594e-07,-0.6197815174195396,0.03866571019084081,-0.04311833872064848,9.799999893189703
1727687399.496428,4.911429345303706e-08,5.658975783184235e-07,0.9961481820595832,0.08768579918701008,6.676741398704791e-08,-7.090842002937204e-07,-0.6211295670019041,0.009486014034705373,-0.05366403399547684,9.800000045896924
1727687399.5336025,5.453359711002579e-08,5.66373912936696e-07,0.9952878948671049,0.09696394345674669,6.471942425714932e-08,-7.103644555149907e-07,-0.6212106449012875,0.007726731093491145,-0.054005620637359704,9.80000004877628
1727687399.5734735,6.061881277141355e-08,5.73153746208415e-07,0.994353117241305,0.10612199692885077,7.012471552524034e-07,-7.045802425325786e-07,-0.606231859502632,-0.09559932206742429,1.723115490275144,9.799997872988314
1727687399.8562546,6.874642050817992e-08,5.824464623403967e-07,0.9930566724482419,0.11763692152415872,1.466592149303555e-08,-6.701556007789893e-07,-0.5452419601681597,-0.45653586757382586,-0.1464377120626767,9.799987917171405
1727687399.859869,7.333348068151006e-08,5.821005124509445e-07,0.9921993319966431,0.12466148396786869,1.3952313027646297e-08,-5.395322402226013e-07,-0.4350318178921416,-0.4696036649175453,-0.12025005832480586,9.800000140536557
