timestamp,orientation_x,orientation_y,orientation_z,orientation_w,angular_velocity_x,angular_velocity_y,angular_velocity_z,linear_acceleration_x,linear_acceleration_y,linear_acceleration_z
1727706438.7095497,6.115883460302759e-07,-1.2994433113008435e-09,-1.4274793677659936e-06,0.9999999999987941,-3.5247004130732997e-08,3.6521251541107315e-10,9.512285375616149e-15,2.5367704470669743e-08,1.1978205333899172e-05,9.799971782806757
1727706438.7504213,6.109008724619671e-07,-1.2923222748654597e-09,-1.427479367543949e-06,0.9999999999987945,-3.3856823156433264e-08,3.50513385479481e-10,1.633717000010668e-14,2.5221497422875992e-08,1.1965056901065568e-05,9.799972894692957
1727706438.8165035,6.104031080970994e-07,-1.287166909806847e-09,-1.427479367155371e-06,0.9999999999987947,-3.285120946747777e-08,3.4031569360025393e-10,1.0870600826909468e-14,2.5126189378606575e-08,1.1955562996707561e-05,9.799973699738157
1727706439.060346,6.099201210323276e-07,-1.2821665541867024e-09,-1.4274793669888375e-06,0.999999999998795,-3.1875779886180804e-08,3.2991956488788814e-10,1.415600012327912e-14,2.5028594179692013e-08,1.1946338721760576e-05,9.799974480893528
1727706439.063682,6.092983776079758e-07,-1.2757310786630974e-09,-1.427479366822304e-06,0.9999999999987954,-3.062037891439017e-08,3.1692158066259544e-10,1.0417701254730159e-14,2.490909950319459e-08,1.1934488242412682e-05,9.799975486419669
1727706439.08787,6.088482015655423e-07,-1.2710710376072882e-09,-1.4274793666002594e-06,0.9999999999987956,-2.971082966071143e-08,3.0760354914043893e-10,7.865217748094353e-15,2.4824315462129677e-08,1.1925888467866818e-05,9.7999762145114
1727706439.119196,6.084113930384487e-07,-1.2665490143766232e-09,-1.4274793665447483e-06,0.9999999999987961,-2.8828219032443134e-08,2.9857449120646947e-10,7.178222663780796e-15,2.4736198134941753e-08,1.1917542634996137e-05,9.799976920966147
1727706439.2204487,6.078490984301971e-07,-1.2607279041281985e-09,-1.4274793662116814e-06,0.9999999999987964,-2.7692005849192602e-08,2.8653400082636985e-10,1.452610432569629e-14,2.4616666760226457e-08,1.1906815440097557e-05,9.799977830371546
1727706439.248579,6.074419704361026e-07,-1.2565091750644932e-09,-1.4274793662671925e-06,0.9999999999987967,-2.686968133642758e-08,2.784397453156907e-10,7.439191075474223e-15,2.454499744144461e-08,1.1899050845944045e-05,9.799978488829849
1727706439.4606361,6.070469371029542e-07,-1.2524153681621428e-09,-1.4274793659341256e-06,0.9999999999987967,-2.6071252640629917e-08,2.7009955217233137e-10,9.989296655759312e-15,2.4464429905640078e-08,1.1891509829542592e-05,9.799979127728191
1727706439.4621282,6.066636374856871e-07,-1.2484450219924282e-09,-1.4274793658786145e-06,0.9999999999987972,-2.529686810623322e-08,2.619250596638496e-10,1.1234313115478728e-14,2.438619788516681e-08,1.1884189594414106e-05,9.799979747657366
1727706439.4795341,6.061702301860525e-07,-1.2433321350449972e-09,-1.4274793656010587e-06,0.9999999999987974,-2.429913762159202e-08,2.5172011676364526e-10,8.442798266411503e-15,2.4291039584006246e-08,1.1874754973822152e-05,9.799980545693893
1727706439.7453983,6.058129851373378e-07,-1.239634518062952e-09,-1.4274793654345252e-06,0.9999999999987976,-2.3577333390485554e-08,2.441794949396545e-10,4.570117010838338e-15,2.4224499985216198e-08,1.1867950896488012e-05,9.799981123504118
1727706439.7466195,6.054663461063681e-07,-1.2360474216889839e-09,-1.4274793652679918e-06,0.9999999999987977,-2.287737670124627e-08,2.3668273108809655e-10,9.987679161715612e-15,2.4148857137491795e-08,1.1861340410919861e-05,9.799981684143761
1727706439.78199,6.050201092336747e-07,-1.2314298436804577e-09,-1.4274793651569695e-06,0.9999999999987981,-2.197677505863321e-08,2.2709559798935225e-10,1.5295139497801687e-14,2.4053890734141064e-08,1.1852818884175229e-05,9.79998240586644
1727706439.81246,6.046970105307355e-07,-1.2280861735640493e-09,-1.4274793651014583e-06,0.9999999999987983,-2.1323866975174212e-08,2.2067548078424025e-10,6.483395438810719e-15,2.4000556472266858e-08,1.1846650323439344e-05,9.799982928429621
1727706439.8420866,6.043835068389017e-07,-1.2248406648569536e-09,-1.4274793649349249e-06,0.9999999999987985,-2.069030750308502e-08,2.1406712818931705e-10,1.1345960325131782e-14,2.3931072903515676e-08,1.1840662801428135e-05,9.799983435470011
1727706439.8846164,6.039799441924244e-07,-1.2206624927692782e-09,-1.4274793648794137e-06,0.9999999999987987,-1.987438364543903e-08,2.0581913472248834e-10,4.337555102881801e-15,2.3860822021858295e-08,1.1832954259554918e-05,9.799984088194902
1727706440.1181464,6.036877418151014e-07,-1.2176352265924878e-09,-1.4274793647128803e-06,0.9999999999987988,-1.9284685835608778e-08,1.9987631623667406e-10,4.970092609396271e-15,2.380069511160537e-08,1.1827390625832692e-05,9.799984560779562
1727706440.1199503,6.03404223482845e-07,-1.21469530393086e-09,-1.427479364601858e-06,0.9999999999987991,-1.871188394207113e-08,1.941138515696917e-10,3.151327066506388e-15,2.374847974358276e-08,1.1821990625294832e-05,9.799985019321987
1727706440.1388824,6.031291263244373e-07,-1.2118435608631414e-09,-1.4274793644908357e-06,0.9999999999987992,-1.815553910461687e-08,1.8807341731752243e-10,1.1655416155251902e-14,2.3680992062026727e-08,1.1816716117662182e-05,9.799985464283841
1727706440.1798098,6.027750114456807e-07,-1.2081744431217816e-09,-1.427479364268791e-06,0.9999999999987994,-1.743943407480933e-08,1.807355905709932e-10,2.2151424785444257e-15,2.3625988746376666e-08,1.1809961021393855e-05,9.799986037042599
1727706440.2623918,6.025186100820287e-07,-1.2055224052398361e-09,-1.427479364268791e-06,0.9999999999987996,-1.6921595537317042e-08,1.7491803674151017e-10,9.942469964126118e-15,2.3563085786408306e-08,1.1805064570660428e-05,9.79998645176638
1727706440.2993736,6.022698259573169e-07,-1.2029483921742802e-09,-1.4274793641577688e-06,0.9999999999987996,-1.6419274458131227e-08,1.6980878332373723e-10,8.9604275545133e-15,2.351313439411028e-08,1.180032742255502e-05,9.79998685415159
1727706440.526743,6.01949565238386e-07,-1.1996321407629256e-09,-1.4274793641022576e-06,0.9999999999988,-1.5772581034121604e-08,1.6334256087495381e-10,5.547994051457217e-15,2.3454347715107222e-08,1.1794210266766666e-05,9.799987372151227
1727706440.529093,6.109911571391762e-07,-1.2063188783256065e-09,-2.419872884296126e-07,0.9999999999997842,5.967139299948726e-07,-3.4415491065565236e-10,0.00011761091000576373,0.0008418889397275046,1.73091252792209,9.799985509794025
1727706440.5546417,6.197634763111878e-07,-1.2116878233652857e-09,2.626373439729157e-06,0.9999999999963589,5.78934936978788e-07,-1.897260287578959e-10,0.0002271809334277379,0.0008661268956826662,1.7307596343849743,9.799985847164626
1727706440.832458,6.307150224806255e-07,-1.2160830989486278e-09,-6.2827398470410856e-06,0.9999999999800646,4.881199155174681e-07,-1.7441021827489118e-09,-0.0026694812266429384,0.04312587611511648,1.5480724388662277,9.799985177326322
1727706440.8340533,6.374819140143543e-07,-1.245067286964903e-09,-0.00010661661293004387,0.9999999943162459,2.566026189027899e-07,-1.106886953269683e-08,-0.015028101452519343,0.1769543056668746,0.9685591701086765,9.799981998504807
1727706440.8593006,6.371139223206529e-07,-1.4186210189970921e-09,-0.00038116471465748925,0.9999999273565456,-7.295562339330059e-08,-2.185494047620588e-08,-0.016508894952938516,-0.009575310685372863,0.036229929335047484,9.799987545936315
1727706440.8600357,6.186460552236908e-07,-3.796647495444587e-09,-0.004221027630488594,0.9999910914229986,-7.499422655653366e-07,-3.2339345986107595e-08,-0.026035190417944498,-0.0030143115428120904,-1.9232054266558702,9.799995039294444
1727706440.8747957,6.040189151147749e-07,-4.031285151393765e-09,-0.004714968815451637,0.9999888844725747,-7.203056465563965e-07,-2.8803713244839018e-08,-0.023913005389820694,-0.004884179043478914,-1.922872445625231,9.79999527234859
1727706440.8914356,6.358484751215086e-07,-1.5758337151011237e-09,-0.0006239533793766516,0.999999805340869,-8.424697222168835e-08,-2.0692110188668178e-08,-0.01614748313272183,0.003281590684399801,3.9408122467619744e-05,9.799989576835005
1727706440.9220145,5.934291816574458e-07,-4.181437309829405e-09,-0.0050586068361142544,0.9999872051664087,-6.988470057487722e-07,-2.63866484092431e-08,-0.022416621731674604,-0.006071272362489288,-1.9226270034829207,9.799995440728242
1727706440.9350295,6.369555727981884e-07,-1.7843147607460041e-09,-0.0009354543032719098,0.9999995624623246,-1.7258011128959573e-08,-1.930995059593894e-08,-0.014874649949284268,-9.55011161740927e-05,0.1895050387974831,9.799981414721474
1727706440.9992523,6.357386813548925e-07,-1.926205322852659e-09,-0.0011572382192435726,0.9999993303994257,-8.387040811347192e-08,-1.8904497840000137e-08,-0.014775084755354634,0.003416668501111185,0.000500542401922812,9.799990266400455
1727706441.028311,6.34503000728771e-07,-2.0669720057839568e-09,-0.0013788359862803024,0.9999990494050084,-8.156789274968878e-08,-1.8857754396881427e-08,-0.014772971763755534,0.003491653611073063,-1.8899909475630575e-05,9.799990578693857
1727706441.207195,5.881904562756298e-07,-4.415320774437988e-09,-0.005747071492972489,0.9999834854480891,-2.01825573959236e-07,-6.362080098503866e-08,-0.06538491665686236,0.28726616070422917,-0.5481302087298345,9.799995317684486
1727706441.2243133,5.850072490987693e-07,-5.484930898492485e-09,-0.008009671548821706,0.9999679220661719,-1.468843485351697e-07,-1.528751867640985e-07,-0.13991945679905216,0.24987944931136583,-0.4233109880133439,9.799994068492879
1727706441.248636,6.396302108770508e-07,-2.275486205609335e-09,-0.001733566298623479,0.9999984973726106,7.954584745399517e-08,-2.689384953074216e-08,-0.025212023557890064,0.12588198612507065,0.48708565746726445,9.799982375428886
1727706441.2580688,5.829271449030324e-07,-6.836126160655895e-09,-0.010622265708903178,0.9999435821439475,-1.3289709551690294e-07,-2.1274180034930988e-07,-0.1909677011102242,0.23526761632390036,-0.4019885652216976,9.799994261983963
1727706441.2658958,6.363834256494653e-07,-2.5330557925018938e-09,-0.0021345050255929254,0.9999977219413506,-4.953346932045905e-07,-3.370037912926574e-08,-0.024276832652357878,-0.04903887395639063,-1.132850216672584,9.799984586108563
1727706441.2867725,5.831315004037336e-07,-8.551537212592218e-09,-0.013570434663823905,0.999907917411746,2.2753645473604823e-08,-2.3073123662561286e-07,-0.1972231791032505,0.0057546267449715685,-0.005934883997244636,9.799993927915052
1727706441.296545,6.348019403761234e-07,-2.7573868446730077e-09,-0.0024782486872707565,0.9999969291368054,-8.33371022796235e-08,-2.9255235312681228e-08,-0.02275382689669204,0.0047634184399641425,-0.0033862696743882964,9.799991624149097
1727706441.341005,5.835496956092301e-07,-1.0879164487099677e-08,-0.017516889436026584,0.9998465675213097,2.2260069851888346e-08,-2.3126870324322566e-07,-0.19735893534569202,0.0008029711994852455,-0.005438556310595529,9.799994117358093
1727706441.3737464,5.838456571478542e-07,-1.2626882413885861e-08,-0.020476748794183375,0.9997903293983588,2.158668961479959e-08,-2.3137550220419914e-07,-0.1973597282597938,0.0007740764587046085,-0.005442200097522153,9.799994292274654
1727706441.4238784,6.301860790754685e-07,-3.0616653178128833e-09,-0.002998302457679791,0.9999955050808854,-8.346749915923926e-08,-3.499414533337571e-08,-0.02760879555716962,0.01054552420401687,-0.028655014415877617,9.799993127951485
1727706441.4565144,6.291059955452556e-07,-3.325106063540864e-09,-0.003413818195251328,0.9999941729054893,-7.071719747075842e-08,-3.524564358726824e-08,-0.02771217729315277,0.006872263988720068,-0.00016744118881968807,9.79999206252735
1727706441.4916847,6.265116029245134e-07,-3.5777077251846934e-09,-0.0038221487941951793,0.9999926955624239,-7.092503430054472e-08,-3.4394720242781945e-08,-0.027161493414030652,0.005960000110459284,-0.015182542687811527,9.799992972493532
1727706441.5684047,5.841142153734008e-07,-1.442747042239324e-08,-0.023780236525111464,0.9997172101901959,1.982566050719016e-08,-2.701915359925534e-07,-0.24302972910424964,0.3170412282604176,0.030987511281773218,9.79999441776987
1727706441.5783398,5.843468714124347e-07,-1.6753223660117743e-08,-0.028083462834626982,0.9996055817745688,1.920164169071758e-08,-3.481581021300012e-07,-0.3089053443817368,0.3088539124844395,0.021339680928775966,9.799994594624538
1727706441.6190782,5.847322778614829e-07,-2.0742288009817854e-08,-0.03513882288394332,0.9993824408733567,2.589470777247527e-08,-4.2764518148176554e-07,-0.3660379266338477,0.05538575018160609,-0.0024520162038576395,9.799994631949744
1727706441.6977975,5.849488697558002e-07,-2.400327999458131e-08,-0.04065450345150029,0.9991732639281183,2.2083184467127373e-08,-4.3288866472387523e-07,-0.3683209766762535,0.005864775678669673,-0.01841420022066911,9.799995003584039
1727706441.7263198,5.851319952291817e-07,-2.727701194352861e-08,-0.04617584916471662,0.9989333265806952,2.136445337767871e-08,-4.3338055358425895e-07,-0.3684582714552706,0.0028832230156770233,-0.018969149527446084,9.799995156296632
1727706441.7681267,5.982031436530528e-07,-3.2211637538206274e-08,-0.05316265308623336,0.9985858662711353,6.548778589865737e-07,-4.1195089789573353e-07,-0.33864030151649727,-0.08715606506585158,1.7837977391814528,9.799993061347264
1727706441.9514976,6.066558311570289e-07,-3.575232918760405e-08,-0.05803288253768124,0.9983146721069456,5.050582748097058e-07,-3.9396010920558505e-07,-0.31607517544820596,-0.11645604650281004,1.4176459122907024,9.799991711525784
1727706441.9567382,6.068358832217633e-07,-3.8662276077299275e-08,-0.06263602486589182,0.9980364364033156,-2.2746224872994986e-08,-3.769111676452839e-07,-0.3064110553381434,0.03266247280311898,-0.0071733656219658696,9.799995315973142
1727706442.031587,6.06099604110849e-07,-4.242079218585914e-08,-0.06874719053923539,0.9976341131860883,-2.4332975334350492e-08,-3.758413404364135e-07,-0.3062013051522398,0.040246280588116565,-0.012973637320899878,9.799995796943385
1727706442.2807457,6.117060034351761e-07,-4.5668925921990787e-08,-0.07324111014277512,0.997314263301532,5.910413011850329e-07,-3.6787356582676883e-07,-0.294514452969286,-0.040727737888852096,1.698341821114234,9.799993700280531
1727706442.2906842,6.163022770152797e-07,-4.87510467189551e-08,-0.07751395986117993,0.99699126677532,3.757524012769219e-07,-3.5555792568568215e-07,-0.2862052525294765,0.08882990670998084,1.1525163648904857,9.80000083711867
1727706442.3219447,6.161478149046796e-07,-5.1518741333148236e-08,-0.08192261998793365,0.9966386929745052,-4.3684093463288365e-08,-3.702351255819178e-07,-0.29587990637549905,0.06676998599718748,-0.003785853505405547,9.799995839193375
1727706442.3628283,6.166295873611018e-07,-5.532530570129661e-08,-0.08785350172062084,0.9961334058423307,2.953495872135855e-07,-3.740921090630849e-07,-0.30227727135767724,0.14385811304835366,0.9415295361735982,9.800001850835221
1727706442.4366052,6.162142301643347e-07,-5.821921483130853e-08,-0.09247608579451688,0.9957149057615549,-4.5506508979683045e-08,-3.8877666858494047e-07,-0.3102860004220708,0.07230821129345612,-0.007061790419633759,9.799996189459666
1727706442.465053,6.172765592699816e-07,-6.134266069782519e-08,-0.09724883200973705,0.9952600990054594,-3.960278350208632e-08,-4.0365319796680504e-07,-0.32166955201212416,0.0871957420968822,0.016404879191247418,9.799995247756652
1727706442.6698403,6.090120786043383e-07,-6.458766308933023e-08,-0.1035782292958734,0.994621310055016,-7.382267573562546e-07,-3.9103863996496717e-07,-0.31148327072448406,-0.004951418512981202,-1.9555769040780104,9.7999991916783
1727706442.6760864,5.979241006730983e-07,-6.627020700880796e-08,-0.10806361864465813,0.9941439806814001,-7.162755478828284e-07,-3.630132978967105e-07,-0.29528773222827587,-0.02789868759808823,-1.9533580814375533,9.799999242169894
1727706442.706827,5.873443795661607e-07,-6.774182061827448e-08,-0.11229319152139688,0.9936751174994718,-6.606626689931379e-07,-3.34732201078008e-07,-0.27700575440418146,-0.0731680340920246,-1.8592916863801616,9.799999857265243
1727706442.8034601,5.828842318789332e-07,-7.067184576746644e-08,-0.11830400030861082,0.9929774234647208,-1.2870286926618954e-07,-3.722393254622745e-07,-0.3245398133230534,0.2267048788193788,-0.38465315487789203,9.799997570348104
1727706442.8328617,5.805876780493668e-07,-7.33949203068468e-08,-0.12357628735080484,0.9923350750649949,-1.295113777660658e-07,-4.2313322449125846e-07,-0.36882735714909004,0.221729081512513,-0.40514097880763833,9.799997555943792
1727706442.8632963,5.783426407848405e-07,-7.649803473528664e-08,-0.12951068563202572,0.9915780263331687,-1.2431301743683336e-07,-4.741164126301325e-07,-0.4136533971441761,0.21996271093981487,-0.4089884502151807,9.799997617855471
1727706443.0481763,5.767511351492387e-07,-8.005757038921758e-08,-0.13613531667022882,0.9906902520741574,2.307048529427336e-08,-5.279458130646482e-07,-0.46514590337185296,0.3150736108956782,-0.006797937027225915,9.800000107972954
1727706443.0562406,5.752803580469463e-07,-8.565784773757566e-08,-0.1462260424030975,0.9892512039531665,1.4638625790540845e-09,-6.092906977136607e-07,-0.5263371694345589,0.09110783957004662,-0.11598528968954606,9.799999416393122
1727706443.1040623,5.750361699722534e-07,-9.02968558999456e-08,-0.15407761042102103,0.9880587482364644,3.2737833761555585e-08,-6.176117158247249e-07,-0.5299923640154298,0.0106470430333557,-0.03997922600176468,9.799997488288437
1727706443.3572643,5.747355642723306e-07,-9.496434067236852e-08,-0.16174768909594245,0.9868321463510312,2.1791421703901378e-08,-5.994698738531498e-07,-0.4931870038240623,-0.5131940538281952,-0.13393809656936123,9.799997395559993
1727706443.373025,5.743083210442444e-07,-1.0012132704927587e-07,-0.1696506159454274,0.9855042711774502,2.0991476964113705e-08,-4.264058471655375e-07,-0.3451894495336233,-0.5159565677902047,-0.10341065073377442,9.799997713175111
1727706443.4058394,5.74151931146294e-07,-1.0286032504905199e-07,-0.17365826755091596,0.984805973839961,2.056157155133474e-08,-2.9651936265620667e-07,-0.23421086571964841,-0.5171625688125683,-0.08727303330434395,9.799997766048929
1727706443.4380534,5.741505872965872e-07,-1.0463920994336596e-07,-0.17605473329898974,0.984380379163807,2.0285271584739868e-08,-1.697964929761587e-07,-0.12717012526127158,-0.48721887084645715,-0.0728656911640967,9.799997819934205
1727706443.4959695,5.742238868974077e-07,-1.0655847655360631e-07,-0.17977107609402238,0.9837084731767112,1.9921283916325448e-08,-2.454832954093223e-07,-0.22396967484986047,0.3230700501180892,0.033872817180136246,9.799997778075282
1727706443.5295215,5.805826643917575e-07,-1.09838322433657e-07,-0.1833014522046857,0.9830567519829687,6.711054689375839e-07,-2.778087248989566e-07,-0.23226457615040058,-0.09619904744116668,1.799267377862543,9.799995628856486
1727706443.7570753,5.865029107835317e-07,-1.131101595002654e-07,-0.18686074849631057,0.9823864110781672,6.233985687309793e-07,-2.9232994429945286e-07,-0.24206190291340504,-0.06807074357213364,1.7056340977774964,9.800004130275866
1727706443.7648983,5.951034288805264e-07,-1.1695079057625849e-07,-0.19026374337254837,0.9817330125637505,6.048606207667848e-07,-2.773953659182956e-07,-0.22557775192796842,-0.05296989113589866,1.7079090973546172,9.799995819753047
1727706443.8025134,6.052175426082073e-07,-1.2168495345215967e-07,-0.19440251086960975,0.9809218438628076,3.8734266905837827e-07,-2.5364478583557564e-07,-0.19770514425246835,-0.13980304261962703,1.1597812519311812,9.799992712932642
1727706443.8336914,6.056846020764025e-07,-1.2364595666260472e-07,-0.19725419170926473,0.980352377389244,1.900809009399912e-07,-2.4076576957206425e-07,-0.1941001008616754,0.047898209911656144,0.6496366753518464,9.80000183426107
1727706443.8655195,6.048216996382223e-07,-1.2533281268566084e-07,-0.20011189299938353,0.9797730503947442,-4.624811919642411e-08,-2.418002751022857e-07,-0.19442369011704208,0.03892539865878878,-0.003334842571357617,9.799998135430322
1727706443.907304,6.058104549942875e-07,-1.2806672199765242e-07,-0.2040272126004748,0.9789652172156563,-3.932500834209726e-08,-2.530575016762719e-07,-0.20322041206475072,0.054330572626740854,0.024958281584470984,9.799996974707861
1727706444.1757874,6.077575278350848e-07,-1.3043916675200261e-07,-0.20699170562906127,0.978342697524945,5.742229616947078e-07,-2.5157946816602593e-07,-0.19887548139814532,-0.023654291006196104,1.7118574510489903,9.800008479926708
1727706444.2091734,6.141088326888248e-07,-1.3368902640785435e-07,-0.20983955268756754,0.9777358345317443,2.454697457481288e-07,-2.456101785173945e-07,-0.19800815217932605,0.16164597898301108,0.8726192952064974,9.799991033272168
1727706444.2677455,6.129031296306511e-07,-1.360441305765164e-07,-0.21374062627481893,0.9768904466107007,-5.706484704086751e-08,-2.519515379780597e-07,-0.19832697059787563,0.04723703788031151,0.021962290780879405,9.799997178277055
1727706444.5080504,6.081471109830332e-07,-1.369387990930451e-07,-0.2166219830249949,0.9762555589956609,-7.60311101739813e-07,-2.4756367720792396e-07,-0.19379008196353895,-0.0037587130535081366,-1.9396377915591598,9.799987199151746
1727706444.5185428,6.017272946267114e-07,-1.374142499664455e-07,-0.21967425198270524,0.9755732791622872,-2.3667673625798277e-07,-2.6880898883701754e-07,-0.22545622237584417,0.2998286411249371,-0.4960611442857876,9.800000612824437
1727706444.5446906,5.95542246749586e-07,-1.3834495136706567e-07,-0.2233881277893695,0.9747295749911289,-7.363002549241273e-07,-3.2093286397523775e-07,-0.2563557058559603,-0.014098828594585866,-1.9482065210503159,9.79999057147934
1727706444.5882235,5.808742645165773e-07,-1.3806857433254223e-07,-0.22812442733744803,0.9736319867648171,-7.072174572470921e-07,-2.861573709249705e-07,-0.23518946495664228,-0.03639598965920772,-1.9453224457817417,9.800001094951261
1727706444.660248,5.702912168690999e-07,-1.3767599613882728e-07,-0.2314061629862169,0.9728572288530584,-6.86128981094816e-07,-2.6161414210646073e-07,-0.2196322680614969,-0.05065771213610277,-1.943282531061406,9.800001088631905
1727706444.6965914,5.654119774579315e-07,-1.3848074690887108e-07,-0.23475568809175074,0.9720544053231945,-1.3577923671230166e-07,-2.737055954373236e-07,-0.24437152323405292,0.22616370512862893,-0.42045112288060954,9.800000256695863
1727706444.9183245,5.630987648490303e-07,-1.410774290741679e-07,-0.2402863004278345,0.9707020623375472,2.658997674720124e-08,-3.4792959643622587e-07,-0.31268502605058013,0.3156375448933423,0.020745510556674177,9.800001528281216
1727706444.9207025,5.611466907935837e-07,-1.4352340551435035e-07,-0.24532432284538574,0.9694410640261313,-1.1138262358166813e-07,-4.0886339228822476e-07,-0.3614750925687212,0.21911632209442974,-0.3861935622630409,9.79999898540286
1727706444.9427412,5.590347371907759e-07,-1.463341159029592e-07,-0.25097886632751526,0.967992566426324,-4.272291630968782e-08,-4.562846677630854e-07,-0.4001350229230693,0.13269613568975352,-0.22365171967338154,9.800000495707364
1727706444.9834375,5.584396690996198e-07,-1.509953143019521e-07,-0.2588128099235537,0.9659274969784947,3.58309001253589e-08,-4.690439792070941e-07,-0.40586242383787785,0.006272420254198205,-0.023460269208865393,9.799998916761204
1727706445.0130398,-5.580382340365935e-07,1.5453297214204542e-07,0.2646900759518052,-0.9643335334272536,3.503433575527831e-08,-4.697845623027468e-07,-0.405992126718946,0.0034471687015731082,-0.02305503747078026,9.799998932293564
1727706445.0486941,-5.575852825322355e-07,1.5811486227494272e-07,0.27085527778459545,-0.9626200800398326,3.952378251957126e-08,-5.047917896518009e-07,-0.44585832865263547,0.2549570391230637,0.02011171329376328,9.79999912900653
1727706445.2479582,-5.570236196071862e-07,1.6203349880003317e-07,0.27741995973000555,-0.9607487527668539,3.44088354877491e-08,-5.291337754300428e-07,-0.456717219586111,0.019230584140449213,-0.026952696534990116,9.799998995601403
1727706445.2895565,-5.55943716978387e-07,1.6761040981875523e-07,0.2872342054379972,-0.9578603819064995,2.5988632647941132e-08,-6.182207768305036e-07,-0.5444068908039794,0.3125564608061389,-0.025651554942266497,9.799999039228092
1727706445.3190215,-5.551988756624351e-07,1.72503744606516e-07,0.2954816354734735,-0.9553484197388842,4.361220018440592e-08,-6.737000146314788e-07,-0.5812734046610444,0.06645904141975319,-0.018749893846166633,9.799998609328078
1727706445.5779283,-5.542002067358703e-07,1.7752978828330253e-07,0.30383159562098117,-0.9527257535629388,3.5439200519367584e-08,-6.800865327290992e-07,-0.5838703363665875,0.01033936778170839,-0.04693585403430463,9.799999114865992
1727706445.584723,-5.524191097975747e-07,1.84489261548892e-07,0.31597602276519793,-0.9487671753581844,2.2435758903340176e-08,-7.689546084633669e-07,-0.6715456974725733,0.3152990016379337,-0.06197795911128801,9.799999176529758
1727706445.6134899,-5.512818427896285e-07,1.904621690771644e-07,0.32590376583259123,-0.9454029487027186,4.3853386912435736e-08,-8.205034921702524e-07,-0.7042956791521163,0.0600504183967445,-0.046721419756003746,9.79999883302934
1727706445.6438084,-5.497752723318663e-07,1.9649990503857247e-07,0.33589926135236625,-0.9418979170921835,3.7252952049931064e-08,-8.261393907187866e-07,-0.706480897564495,0.012867077214163334,-0.0692391245642171,9.799999230953532
1727706445.7080865,-5.475412660556301e-07,2.0468799641184354e-07,0.34974517471397326,-0.9368448712374694,6.607740486519561e-08,-8.847675862760965e-07,-0.7624046422542361,0.1782293096241838,0.018502281043018553,9.800000094540161
1727706445.739742,-5.457235632792002e-07,2.1121290294988156e-07,0.3605222857304261,-0.9327505998343644,3.819083699996664e-08,-9.019291525733823e-07,-0.7696754012965711,0.021751897197140033,-0.08046894729810188,9.799999281710923
1727706445.9728048,-5.437610127908776e-07,2.1773409291825044e-07,0.3712719216474459,-0.9285241839585383,3.668469720447399e-08,-9.037195794434682e-07,-0.7701128225677534,0.012275311992011356,-0.0829345209802811,9.79999933216135
1727706445.974543,-5.413515292607422e-07,2.2427328829144244e-07,0.3825804623859932,-0.9239221773505475,1.5252315967353648e-08,-9.670907637479547e-07,-0.8358552885749498,0.32004934117120076,-0.12034360533181872,9.799999401530359
1727706446.0079372,-5.383659261133965e-07,2.340804655505518e-07,0.3988812753055604,-0.9170025780826709,8.885473920638531e-08,-1.0603174958872158e-06,-0.9069607995950884,0.14747446070905973,0.032291782256952124,9.799999066324299
1727706446.0364988,-5.357420088296401e-07,2.4172451183896033e-07,0.41138657606325046,-0.9114609618818625,4.1986185912050904e-08,-1.0748029435219132e-06,-0.912758878398729,0.024380311068825773,-0.11367392745275737,9.799999399089588
1727706446.0718126,-5.328699072328384e-07,2.493643387990718e-07,0.4240883656217814,-0.9056208136653552,6.439135617367696e-08,-1.1090193812840794e-06,-0.9481560643132673,0.2019602532804044,-0.038077126210209665,9.800000419309807
1727706446.1116676,-5.287742143217382e-07,2.599027317167374e-07,0.44131370630080347,-0.8973528919163859,4.1358385423914406e-08,-1.129266708497049e-06,-0.9564983248579219,0.02231088371102384,-0.1273137642188829,9.799999499349893
1727706446.313435,-5.255114879903908e-07,2.6777053302139007e-07,0.4541447391846297,-0.8909279184482752,4.003594556964338e-08,-1.1307770108693684e-06,-0.9566875813791735,0.01820754303660621,-0.1281058232193202,9.79999952379988
1727706446.3426425,-5.2160920635224e-07,2.755202379672973e-07,0.4674637723580507,-0.8840122292889577,7.3529502425133715e-09,-1.1945282562252961e-06,-1.0224084310893877,0.32623623344486363,-0.2022319115659857,9.799999634599915
1727706446.4050934,-5.167723793956641e-07,2.8709084478489684e-07,0.4863236044254534,-0.8737787773677531,1.4569617474223978e-07,-1.2900436533460274e-06,-1.0973803819238073,0.2087831072403953,0.12888758824616836,9.800000270869816
1727706446.6691458,-5.126701374837204e-07,2.9605296605364267e-07,0.5007317514367551,-0.8656025144965379,4.818032735787107e-08,-1.3114870048161981e-06,-1.1056944222505527,0.03538905437512066,-0.1656574211215494,9.79999953972811
1727706446.670642,-5.076010438624397e-07,3.0472200784878754e-07,0.5155817347722307,-0.8568404021571966,3.2861413351703837e-09,-1.3759908787274041e-06,-1.1713938367091192,0.33193662613662106,-0.2795605318200049,9.799999785541578
1727706446.6993713,-5.032558811812293e-07,3.1449674147200736e-07,0.5309448710939244,-0.8474063628854245,7.546982267360599e-08,-1.436014718060544e-06,-1.2106051440860055,0.10713449401555467,-0.1308312317449351,9.799998217054453
1727706446.7396762,-4.963071540590307e-07,3.272396716057284e-07,0.551356715458558,-0.8342696040959404,5.099895839798277e-08,-1.4467496785378876e-06,-1.2142147692655694,0.030664499751788196,-0.20596338838402845,9.799999723983458
1727706446.8007548,-4.905470576834919e-07,3.3669682321651725e-07,0.5669777025102556,-0.8237331393454059,1.0849481272327074e-07,-1.5081359603191157e-06,-1.2743801248844002,0.2553541102392382,-0.046353105703748586,9.800001730140513
1727706446.8359652,-4.845628845465746e-07,3.465298768628236e-07,0.5828390245428312,-0.812587639254749,-4.042068713627415e-09,-1.5482444521493308e-06,-1.3081103177938818,0.3419617901561648,-0.35975215221327655,9.799998620348005
1727706447.0918777,-4.7626111609184577e-07,3.601876499907335e-07,0.6043807054242731,-0.7966956526243264,6.054349303472982e-08,-1.6085725712964665e-06,-1.344971323458209,0.059774462184908235,-0.2418574033811664,9.799999641474896
1727706447.0942082,-4.764806754517563e-07,3.7567889744012034e-07,0.620154373374291,-0.7844797978178737,6.385309591024281e-07,-1.609406587041023e-06,-1.3227689490923076,-0.044338420533588996,1.3931549733712563,9.799997736577312
1727706447.1117892,-4.7613361336528676e-07,3.9103495988553993e-07,0.6354335768870687,-0.7721555344385782,6.192721507896466e-07,-1.6126536930729192e-06,-1.3017931373227467,0.024735216979575328,1.4078363158353848,9.799997709499198
1727706447.1531422,-4.7482143404458255e-07,4.112746029696503e-07,0.6550705782298336,-0.7555676922270014,5.942284468870387e-07,-1.6165876206802304e-06,-1.275673975420321,0.11395746914586559,1.4258432877374503,9.799997674874183
1727706447.1840966,-4.661220974647524e-07,4.1952408814504666e-07,0.668609349500048,-0.743613836450566,-7.038000231915056e-08,-1.5051024385135361e-06,-1.1682262286021314,-0.2784837851036689,-0.40248573333199966,9.80000012102188
1727706447.219428,-4.5802504749574277e-07,4.2685036641693724e-07,0.6807475712159817,-0.7325180846116699,-6.908831794467668e-08,-1.3650496497577498e-06,-1.0604088190146899,-0.30720757434413354,-0.345598741262901,9.800000060569444
1727706447.2458224,-4.505677334867006e-07,4.332924501645564e-07,0.6915318723152817,-0.7223459486781455,-6.757575988403574e-08,-1.225291006815651e-06,-0.9522483202638565,-0.33378259060078186,-0.29385964174813217,9.800000006447657
1727706447.4853024,-4.4167560157393126e-07,4.40568359874743e-07,0.7038795618502184,-0.7103193383325244,-6.526098030713305e-08,-1.0393616649022144e-06,-0.8075376234864552,-0.3663872867580288,-0.23302691363094957,9.799999944347823
1727706447.5172498,-4.3583023421985265e-07,4.4508192495965286e-07,0.7116675789128002,-0.7025163749863809,-6.33363121976394e-08,-9.001935695024489e-07,-0.6986535691916143,-0.3890689038724765,-0.19361407925599952,9.799999905349223
1727706447.5637825,-4.301991272873224e-07,4.4828736417221627e-07,0.7182537436570932,-0.6957812585304266,-2.0679262560494506e-07,-7.650491124610751e-07,-0.5957242388159861,-0.32251577310955204,-0.5522852387696956,9.79999754875509
1727706447.7874126,-4.299836393058979e-07,4.5848052085235935e-07,0.7259978629587922,-0.6876969557725783,5.568883895192846e-07,-6.997495874548419e-07,-0.5521612783281538,0.023051320889814698,1.6474995862161759,9.799997487717366
1727706447.8002784,-4.317669033468973e-07,4.680737090557502e-07,0.7315673129300174,-0.6817692180290545,5.402675382131459e-07,-6.915921475146567e-07,-0.5373331085053192,0.049886681359864474,1.6523582461643027,9.799997467282095
1727706447.835699,-4.333569780061245e-07,4.774541843041403e-07,0.7369330011672849,-0.6759657918786738,5.240264503940645e-07,-6.808143647673346e-07,-0.5216870295298709,0.06883794972910054,1.655356343193432,9.799997449181989
1727706447.9036496,-4.331238698520509e-07,4.873890216793513e-07,0.7438984673104734,-0.6682926532086846,1.3611840890441922e-07,-6.879695213535144e-07,-0.5266182967569574,0.3184173093476234,0.6612584876100693,9.799995495315049
1727706447.945191,-4.2992002873503706e-07,4.918074206507899e-07,0.7491571714262206,-0.6623922799219791,2.37657093737287e-07,-6.931107668989316e-07,-0.5150989230323703,-0.06795144797253139,0.8927573278421918,9.800004288933753
1727706447.9682705,-4.2610460010473705e-07,4.950365157284203e-07,0.7539520895997037,-0.6569294076137963,-9.992632355026223e-08,-6.35669155183369e-07,-0.4775995505673807,0.10834087380019045,0.0005356645178167603,9.799998833698861
1727706448.189188,-4.2121705462034916e-07,4.964945398916262e-07,0.758273332258671,-0.6519367711556905,-1.5431081773540301e-07,-5.57374350402698e-07,-0.4056166289499835,-0.32039271875537595,-0.2048185199778678,9.800000030990063
1727706448.2007196,-4.157438666301779e-07,4.972636497385409e-07,0.7624136341605653,-0.6470899863586669,-1.4732323442499534e-07,-3.698901703792451e-07,-0.26643745166657956,-0.37855822937887695,-0.18255309898684946,9.800000010979053
1727706448.2334368,-4.1220775571597775e-07,4.965880646874134e-07,0.7644382471289226,-0.6446969569697409,-1.4925362873607327e-07,-2.546790922428839e-07,-0.19279861627726066,-0.06551536522650002,-0.1475504730742088,9.800002307847276
1727706448.2644477,-4.085511256150642e-07,4.950851006536542e-07,0.7662944010529693,-0.642489603740371,-1.463570086867678e-07,-2.4638793997896427e-07,-0.19372935683159676,0.0774454424513465,-0.1386538248208751,9.800005873406535
1727706448.3092642,-4.0544482749137e-07,4.951839816919136e-07,0.7687812991074513,-0.6395117779542843,-9.333201341312974e-08,-2.4653523478255426e-07,-0.1940106543575394,0.06701384268765642,-0.005162298768642866,9.799999790416585
1727706448.341609,-4.025190602587168e-07,4.940596819492821e-07,0.7701449483437796,-0.6378689195596153,-1.1502450124484659e-07,-1.657560780490406e-07,-0.1292448236925051,-0.05253698993028734,-0.09011309576555669,9.800003173093224
1727706448.585686,-4.006473491701495e-07,4.934615321761299e-07,0.7710565077828411,-0.6367667247943517,-1.1990810318828989e-07,-9.664746337114984e-08,-0.06366379544426025,-0.4086529228947086,-0.15821375899110934,9.800000010112017
1727706448.6764991,-3.9759436551302076e-07,4.900265772974497e-07,0.7710459676811959,-0.6367794875168089,-2.608827295553668e-07,3.65376062857951e-08,0.03301603064136395,-0.287676540468293,-0.5507480473088199,9.800000823375171
1727706448.7074869,-3.966878213005461e-07,4.886889579789905e-07,0.7712966445684,-0.6364758330660567,-1.066057291234938e-07,-4.4216297349102593e-08,-0.05523234187870077,0.4111081997936484,-0.041143347288982106,9.79999985873581
1727706449.027923,-3.9983926665226486e-07,4.934304937819291e-07,0.7720165767775778,-0.635602395511712,5.468800117808999e-07,-9.025876479772314e-08,-0.07373258529499989,0.0013120693191401224,1.7254617460047632,9.799997498225006
1727706449.0344195,-4.024473717865546e-07,4.975578010353341e-07,0.7725788568994066,-0.6349188214816099,2.5107273335364503e-08,-6.287996428293195e-08,-0.04049047556790136,-0.3110230722847478,0.2779396293127339,9.799992004394745
1727706449.0793014,-4.0343071210152034e-07,4.987640286126884e-07,0.7724600788878345,-0.6350633248142965,4.9718870320159265e-08,4.323801099057081e-08,0.03630298590891393,-0.2331999134632931,0.36735054340490153,9.799998573677167
1727706449.1069975,-4.0263451573075927e-07,4.970069559722935e-07,0.7720759013001965,-0.6355303317946986,-2.0702835888166992e-07,5.9486236251121674e-08,0.03813149245995228,0.037280176906965515,-0.30980577659343944,9.799997928490374
1727706449.206065,-4.0208352289414797e-07,4.955951254878469e-07,0.7717247661482971,-0.6359566693674569,-8.895137725218948e-08,5.440233710212208e-08,0.036665549570627204,-0.013491676802995903,-0.0008741920212647744,9.79999988094306
1727706449.245978,-4.0171516200085063e-07,4.942007716168782e-07,0.7712749280969436,-0.6365021486913053,-8.452045632603696e-08,5.1478674004787353e-08,0.034715726835356106,-0.01242261173098587,0.004166292952365124,9.799999662811388
1727706449.468773,-4.051924128704542e-07,4.977394243468606e-07,0.7709500423207247,-0.636895621154095,5.342782024170172e-07,4.934747252831425e-08,0.033356556140221136,-0.0031129044299115487,1.730824368956665,9.799997507612309
1727706449.4776547,-4.0904668990780267e-07,5.017387390107085e-07,0.7705658327071048,-0.6373604141017755,1.4074950341418496e-07,6.338823384753652e-08,0.05200986760211683,-0.24174405289663212,0.6490095622918899,9.799993111605513
1727706449.5184805,-4.085664106739364e-07,4.997621829079034e-07,0.7698136531442069,-0.6382687047258028,-1.030593139006507e-07,8.464841713439137e-08,0.05965611556083849,-0.03001400737967894,-0.0003209904648706988,9.799999852946096
1727706449.8822699,-4.102795334688592e-07,5.007294609637024e-07,0.7691957038434044,-0.63901327778727,6.50185160570367e-08,9.400487562892556e-08,0.07012120336079358,-0.12026729689393147,0.45868506720386415,9.799992538655372
1727706449.8880403,-4.099840010832859e-07,4.991053897174134e-07,0.7685024484665528,-0.6398468462847153,-1.0335389399890468e-07,1.0149650798677209e-07,0.07253544384278122,-0.03778492825875518,0.00038355373215354007,9.799999819172609
1727706449.8973706,-4.095051965208576e-07,4.97268445333667e-07,0.7678260269520903,-0.6406584053413744,-1.0509270097580163e-07,9.691348413403796e-08,0.06897013817031855,-0.02353048077635546,-0.01194955272766416,9.80000045897895
1727706449.9597335,-4.0943444469920527e-07,4.95571338832726e-07,0.7669360089922834,-0.6417235838821687,-8.208074406184247e-08,9.733305758153575e-08,0.07025466689746364,-0.03944537909855029,0.04155697010190509,9.799997954078629
1727706449.9844122,-4.0911845743847604e-07,4.939733921996083e-07,0.7662582262291441,-0.6425327468197665,-9.475950410707239e-08,9.734521780322641e-08,0.07038189986658937,-0.03513473818524496,-0.0005108687545791878,9.799999884136515
1727706450.0349226,-4.0881074930029513e-07,4.923863083098097e-07,0.7655685708531628,-0.643354306211932,-9.233638284134558e-08,9.916222911483939e-08,0.07227980011108376,-0.04155087918740375,-0.0025468336714034065,9.799999944133102
1727706450.2876935,-4.0855705648061524e-07,4.904489316972378e-07,0.7646500976634466,-0.6444456750905186,-8.476903965807273e-08,9.625175455907831e-08,0.06996285020066369,-0.02760793981288613,0.011033540448978571,9.799999416135176
1727706450.2936544,-4.083118478548418e-07,4.889489017579773e-07,0.7639398294055988,-0.6452874840312174,-8.599062102718954e-08,1.0239484779893769e-07,0.07589781189820928,-0.05572504904561385,-0.0033619206338986896,9.799999909568326
1727706450.3232446,-4.081227004852933e-07,4.874488444439619e-07,0.7632003638693442,-0.6461619027684132,-8.33789679081567e-08,1.035660350800758e-07,0.07639805701752526,-0.03846885240155889,-0.0007890597290982572,9.799999903575364
1727706450.375504,-4.078992378149838e-07,4.854995520111011e-07,0.7622236269133589,-0.6473137898845062,-8.009436569948796e-08,1.0076598014272473e-07,0.07439924226776783,-0.03118212347220367,0.00019062507163719063,9.799999903607493
1727706450.436387,-4.077399117258505e-07,4.840841661405383e-07,0.7615021922613873,-0.6481623339725168,-7.773671113285148e-08,9.989255961391243e-08,0.07423407213630884,-0.03687975371760096,-0.0006689818161900248,9.799999909810495
1727706450.4681196,-4.0312123162774834e-07,4.774435667794118e-07,0.7607956644427488,-0.6489914922128993,-7.623329686681593e-07,9.662059342860458e-08,0.0710236320448314,-0.015425569090477887,-1.9208673528240663,9.800002448427621
1727706450.7367947,-4.006753134660183e-07,4.7345311932262985e-07,0.7601335802425894,-0.6497668352472277,5.77888398663536e-07,8.722458490036787e-08,0.06654081511811438,-0.006874459767472239,1.7314016401270598,9.800023876475505
1727706450.7426412,-4.0742970405237086e-07,4.799788510272134e-07,0.7592721147756949,-0.6507732752070012,1.7154220476925525e-07,8.967178069983546e-08,0.07322206283312159,-0.17799058995288486,0.64509815561857,9.799991402910305
1727706450.766743,-4.074313860697618e-07,4.788135515296413e-07,0.7585708916864911,-0.6515905173385863,-6.870714423417324e-08,9.523408599724514e-08,0.07161860527122413,-0.034450724062885095,0.0011365784155272754,9.799999848683683
1727706451.0860696,-4.0733423752958755e-07,4.77551879023161e-07,0.7578570571428381,-0.6524206319073629,-6.694461426996033e-08,9.735048399491676e-08,0.07578684935380053,-0.09448521139575264,-0.007961619285956966,9.799999932580404
1727706451.0958133,-4.072986120794113e-07,4.7587858771647807e-07,0.7568445796359465,-0.6535948915615045,-6.396269213220835e-08,1.0264768859474072e-07,0.07800800121465105,-0.04101072777542529,0.0005834876213222815,9.799999852874198
1727706451.1260123,-4.0728599869405533e-07,4.7463113657267236e-07,0.756078754096001,-0.6544806472343149,-6.264129406605909e-08,1.0253460459018785e-07,0.07806763244933397,-0.03895705765728737,-0.0007666205524449411,9.79999992878559
1727706451.1601632,-4.072891883879802e-07,4.7340872075716494e-07,0.7553051473914714,-0.6553732786157501,-6.029637303365265e-08,1.0345610426660705e-07,0.08010465153946837,-0.0674074447979745,-0.0033546341628065295,9.799999941203742
1727706451.198994,-4.0733947380572526e-07,4.717897687952357e-07,0.7542448837532644,-0.656593219072232,-5.836019394225778e-08,1.0549282667403898e-07,0.08088540572051586,-0.040477516673731034,-0.0008470403353779317,9.799999934017459
1727706451.250593,-4.073608310324953e-07,4.706300071371802e-07,0.7535223590827778,-0.6574222800924363,-5.6691620491205755e-08,9.465619901525967e-08,0.07241174848516856,-0.02956101048648801,0.0003313600891857228,9.799999931487498
1727706451.4995131,-4.0736598234769904e-07,4.695159836081477e-07,0.7528293694983191,-0.6582157248352374,-5.4889930987925597e-08,9.028560242319095e-08,0.06617684350709777,0.04885214268798293,0.011443634257205152,9.799999933374835
1727706451.500566,-4.073226740962964e-07,4.6847503355524847e-07,0.7522067469178703,-0.6589271658467646,-5.348114854434126e-08,8.1450484852246e-08,0.06265198946650861,-0.028527116268082065,-7.2331093097432e-05,9.799999937500978
1727706451.5361996,-4.0726804364149057e-07,4.6713139067792207e-07,0.7513814223095348,-0.6598681369847436,-5.1382743664369e-08,8.094062832867614e-08,0.0625747069370072,-0.031192989368802482,-0.000479349049727296,9.799999941705003
1727706451.5679667,-4.0724171126370894e-07,4.661460120179109e-07,0.7507617295904757,-0.660573103737909,-4.985443041856645e-08,8.07432575527384e-08,0.06257424984787754,-0.031208757651030386,-0.0004817828825268934,9.799999943452221
1727706451.6530454,-4.0722208132680225e-07,4.6518417374730184e-07,0.7501539970618842,-0.6612631705241842,-4.837981008509873e-08,7.878889485896874e-08,0.06115008522798444,-0.02940130264393601,-0.00029346262848392867,9.799999944419223
1727706451.6924455,-4.071999436451457e-07,4.639423927656682e-07,0.7493716020203256,-0.6621496825379511,-4.646936234704494e-08,7.339814977725537e-08,0.05662514526459437,-0.015028853636500666,0.0015827551873049644,9.79999993955139
1727706451.9056292,-4.0705710904478707e-07,4.6292192225578897e-07,0.7489133023774155,-0.6626679904158446,-7.990727065829544e-08,5.44665625914794e-08,0.025744460971168143,0.39927095954714525,-0.038166348453317366,9.799999349579277
1727706451.9109025,-4.067223398664e-07,4.6250784342965507e-07,0.7490643655974977,-0.6624972273086422,-3.644693897684074e-08,-2.588257191167295e-08,-0.02276301399528431,0.06622657488418197,0.028679030581009537,9.799998990681258
1727706451.949945,-4.0594165826832376e-07,4.6208001137611975e-07,0.7493765432996393,-0.6621440903246858,-4.236275426631636e-08,-2.948293544613618e-08,-0.023406019286551557,0.011333461235986875,3.587790438374033e-05,9.799999944761227
1727706452.228448,-4.0538127104291037e-07,4.6178345824845673e-07,0.7496397401983355,-0.6618460998714084,-3.5221561789751343e-08,-3.475658234792866e-08,-0.03272190003013376,0.14229877104520763,0.034109988294593496,9.800000040549168
1727706452.2335172,-4.0473264496668975e-07,4.6155536805096824e-07,0.7499957138513681,-0.6614426877698474,-4.0004770112917565e-08,-4.552031952220601e-08,-0.03624274531581508,0.020865177454329257,0.0002747035639884041,9.79999995118058
1727706452.258958,-4.040583417450907e-07,4.613652809560769e-07,0.7504047123433408,-0.6609786439004908,-3.883975674950764e-08,-5.2450981358146105e-08,-0.041833001962183744,0.025265686100538573,0.00039055277531073105,9.799999954482432
1727706452.298444,-4.031531205031878e-07,4.611544612622855e-07,0.7509589364294376,-0.6603489045924076,-3.732394560123062e-08,-5.2710931701296246e-08,-0.04195556684568537,0.02103832291768536,-0.00023408915883106659,9.7999999579301
1727706452.3290448,-4.024446403188468e-07,4.610503926725469e-07,0.7514732264994171,-0.6597635863354245,-3.6199061821273254e-08,-6.633276427348795e-08,-0.05313532557396065,0.03525234487619944,0.000903734097270722,9.799999954409593
1727706452.3639252,-4.0169785903640714e-07,4.6100070276410484e-07,0.7520369361776114,-0.6591209650923094,-3.5099124383771916e-08,-7.37826457637963e-08,-0.0594998085359914,0.04801058627130893,0.002244076691990798,9.799999949677238
1727706452.615887,-4.0067085413703016e-07,4.609938490625692e-07,0.7528466376916593,-0.6581959739439237,-3.339278213496494e-08,-7.859966302230807e-08,-0.06600107484583652,0.11399715213524701,0.01191288465658008,9.799999962471928
1727706452.6220193,-3.99857718782777e-07,4.6104773371065593e-07,0.7535178259578509,-0.657427475820247,-3.277946941418308e-08,-8.541823576055268e-08,-0.06826337779410248,0.0359705002718089,-0.00037024880839101444,9.799999962465469
1727706452.6525047,-3.9909008465302126e-07,4.610743492430933e-07,0.754037817843291,-0.6568310051008218,-3.202504081749992e-08,-5.638208195573282e-08,-0.0421317206762296,-0.055841344893092934,-0.011645068110350388,9.800000005304645
1727706452.6964502,-3.9829181212603835e-07,4.609455456833824e-07,0.7545296692908428,-0.656265935547077,-3.086304816149709e-08,-4.3533233335774595e-08,-0.02920068899424431,-0.13092541833463583,-0.021464120150770795,9.799999972149624
1727706452.7669458,-3.978070832350806e-07,4.607716802126576e-07,0.7547812740574223,-0.6559765455653759,-2.9659126825012104e-08,-3.100847171180165e-08,-0.02513124187336936,0.009437226197594828,-0.0005524784010961503,9.799999968384574
1727706452.796414,-3.9734596591488026e-07,4.6059570769687743e-07,0.7550257568279074,-0.6556951323031729,-2.878439520643986e-08,-3.037190295612407e-08,-0.024441177023525197,0.004033502025638386,-0.0012745837282154796,9.799999967923078
1727706453.0355,-3.9689935833081604e-07,4.6042419601099255e-07,0.7552640818464167,-0.6554206028744591,-2.7916870526033155e-08,-2.9641790970027188e-08,-0.02421192888536919,0.011940714486782505,-0.00010192562708018786,9.799999968567903
1727706453.0414572,-3.96312430379513e-07,4.6018743405824183e-07,0.755557049245651,-0.6550828537939577,2.7785068242363915e-09,-2.645763571901165e-08,-0.020086511408613957,-0.02898820331873124,0.07554488647686435,9.800000462836008
1727706453.0652797,-3.959362331109754e-07,4.600243464530492e-07,0.75574481408822,-0.6548662275445216,-2.5941972618452248e-08,-2.3071622998163926e-08,-0.01899546313150331,0.008663428920382436,5.7933496329230315e-05,9.799999960844817
1727706453.3361907,-3.9555592497188763e-07,4.5984844004036693e-07,0.7559311692915542,-0.6546511034842418,-2.5251661464522908e-08,-2.298566867798205e-08,-0.018971934656185633,0.009475004118679334,-4.54625563980123e-05,9.799999971431026
1727706453.3484979,-3.94965709060268e-07,4.5949175693640716e-07,0.756152937200038,-0.6543949385221346,-2.332089374652674e-08,-1.950199107088636e-08,-0.01613499224051119,0.006175106749637871,0.001351877682540864,9.79999989862874
1727706453.3774881,-3.94627231609051e-07,4.593208162269189e-07,0.7563108335197137,-0.6542124449292822,-2.3211205487337287e-08,-1.9333562142916774e-08,-0.016082368417927595,0.00799057171124186,-3.0259572148371496e-05,9.799999973128818
1727706453.4069343,-3.9429548928201753e-07,4.591571296552551e-07,0.7564686208445554,-0.6540299883622844,-2.2525431395762926e-08,-1.9323272667027515e-08,-0.016081233104947416,0.008029735233363595,-2.892616625700919e-05,9.799999974106925
1727706453.446972,-3.9374960290051585e-07,4.58814052354838e-07,0.7566740382075929,-0.6537923216911076,-2.1907043474354087e-08,-1.8630734672983272e-08,-0.015522054113385298,0.007299258786075016,-0.001808565403594364,9.800000052746187
1727706453.5132756,-3.9310605094386646e-07,4.58185765497804e-07,0.7566685387981278,-0.6537986864415847,-3.4193085932781796e-08,1.1132597185872405e-08,0.011545086768122638,-0.08536794357206597,-0.05186724077857504,9.800001824007513
1727706453.7793853,-3.9301390819762675e-07,4.5787281091865375e-07,0.7565357979633455,-0.6539522814392498,-1.8797204084333894e-08,1.7871016738505696e-08,0.013770946902791063,-0.008528230559473672,-0.0003788288904950457,9.799999982449709
1727706453.7821913,-3.9200792431515276e-07,4.562972981915327e-07,0.7561896081619487,-0.6543525628493528,-2.0462994496460553e-08,4.685192293169463e-08,0.03785007145903465,-0.037019500587807674,-0.018136249195027675,9.800000672293331
1727706453.796513,-3.9184010103275147e-07,4.5533387616953853e-07,0.7556828281011087,-0.6549377552964476,-1.227096838129167e-07,4.928406666043924e-08,0.03988018258247497,-0.04010484324856334,-0.30369609417961607,9.799998202206464
1727706453.8256104,-3.9195414774224536e-07,4.5486198597741825e-07,0.7552858680264132,-0.6553954970544327,-1.2889897027896026e-08,5.07615237286048e-08,0.04045410416828973,-0.01992698572124786,-0.001098224248528655,9.800000016157743
1727706453.9095426,-3.9166210503491233e-07,4.53909553761874e-07,0.7548707619701729,-0.6558735645855923,-2.8976180253850572e-08,5.3868017679502945e-08,0.04340333305274305,-0.029496345635561073,-0.05152367661692783,9.800002236839394
1727706453.9507833,-3.913522500273509e-07,4.526913698561459e-07,0.754283077069344,-0.6565493428878318,-1.8972331391519314e-07,5.7177641896025147e-08,0.04825252163802031,-0.08595242718327685,-0.5065503986307222,9.799997041744065
1727706454.1630278,-3.9153438472333144e-07,4.521753391424404e-07,0.7537923107615933,-0.6571127393654301,-8.371524097985919e-09,6.20696126288946e-08,0.049997728065828695,-0.02492552836478356,-0.0018969704284810098,9.80000004315177
1727706454.1655881,-3.8982004543934496e-07,4.494837752769155e-07,0.7533124699863628,-0.6576627726750931,-1.2194513319307886e-08,5.992740687958935e-08,0.048508673085437354,-0.020996092647659392,-0.02948123714348958,9.80000130146053
1727706454.1933205,-3.9051068898247757e-07,4.493364033495235e-07,0.752661834270079,-0.6584072928156594,7.517858527776552e-08,6.168788708651711e-08,0.052305692919699893,-0.07531916303930421,0.20469725981048725,9.800001241531602
1727706454.4888344,-3.909104103800829e-07,4.490238209508175e-07,0.7521322943622618,-0.6590121484289994,-1.99489017530211e-09,6.613365524278365e-08,0.05374707327762004,-0.025655729888061935,7.401995767300205e-05,9.799999954554647
1727706454.4930394,-3.88735563162176e-07,4.458288426713466e-07,0.7516908739482696,-0.6595156025618626,-1.4161041240528775e-08,5.194197559231035e-08,0.04158194183220244,0.004010685217195852,-0.05092531555646478,9.800002400756703
1727706454.5058005,-3.892097852492257e-07,4.4575658448057615e-07,0.7512581126251221,-0.660008521319679,5.573040481580149e-09,5.359012911957409e-08,0.04398457933802728,-0.02104909451833735,0.0012283284590507352,9.799999903077056
1727706454.562842,-3.896879681541016e-07,4.4546321058504583e-07,0.7506765871502905,-0.6606698581773214,4.75525925689144e-09,5.3693489529717395e-08,0.04403706940198146,-0.01922781413723129,-0.00023286657753483878,9.79999998100783
1727706454.594004,-3.899502383989101e-07,4.4513470698919503e-07,0.7502403838061813,-0.6611651582668308,4.40296799267213e-09,5.358961627512084e-08,0.04399564197442839,-0.019136344108437536,-0.0015988452441142028,9.800000043342882
1727706454.6434658,-3.895376333957316e-07,4.4403706431739065e-07,0.7498299387701863,-0.6616306091192802,-2.2859800094682348e-07,4.965031843095683e-08,0.03612445821991081,0.09027379704156753,-0.632033664130643,9.799996137715329
1727706454.9148068,-3.898241510809617e-07,4.4371857679697084e-07,0.7493879564978613,-0.6621311732999818,7.0565598250546765e-09,4.014980819010693e-08,0.03311691612800321,-0.013545216053832496,-0.00028325393152764497,9.799999993251808
1727706454.9163764,-3.833047307529083e-07,4.358732567563973e-07,0.7490742294916647,-0.6624860743526098,-6.728397545629616e-07,3.8058507583363815e-08,0.030822852254813606,-0.00390289275809787,-1.9212556929414801,9.80000234849049
1727706454.934122,-3.7696176025693706e-07,4.282769915552079e-07,0.748782397044531,-0.6628159034573029,-6.527987049706682e-07,3.467169042164033e-08,0.02864105134694677,-0.0018236137339231837,-1.9211233991166208,9.800002306819751
1727706454.9734313,-3.6877238873203263e-07,4.185214589335266e-07,0.7484255044576203,-0.6632188660442685,-6.269994884810696e-07,3.05508207811875e-08,0.025902180317185042,0.0005222126495795625,-1.9209494477138456,9.800002253204992
1727706455.0539641,-3.7151291314696e-07,4.212924388282773e-07,0.748179217242962,-0.6634966909377866,6.960614019032131e-07,2.6906411726007412e-08,0.024260593351875567,0.0028098127663933187,1.7311768950878605,9.799997902623065
1727706455.094541,-3.7844920921345113e-07,4.2881751175115535e-07,0.7479469594942356,-0.6637584995937912,6.753290595382255e-07,2.5882425038705077e-08,0.022880782827138502,0.001357563392112204,1.7309601389799254,9.799997871021025
1727706455.1141727,-3.8422441364876795e-07,4.350452402677175e-07,0.747685252263211,-0.6640532836661238,3.6799467036568165e-07,3.162349281686545e-08,0.03436961570345688,-0.179238392488486,0.9101428403793665,9.799993118740112
1727706455.329416,-3.8093899254699976e-07,4.304772531042587e-07,0.7468934419952584,-0.6649437467215894,-2.1577380155320228e-07,7.793489466292958e-08,0.07673359428983213,-0.27661745169218316,-0.7355793931838638,9.800005824793242
1727706455.3462865,-3.815324296857686e-07,4.3000831301165797e-07,0.7459999069257557,-0.665946048014727,3.7726145102008416e-08,1.0628978412944362e-07,0.091127727154785,-0.03996740449020686,-0.00744985021203739,9.800000195269362
1727706455.3939836,-3.825270633139485e-07,4.2989222390135715e-07,0.7450860081727233,-0.6669683953718536,3.828586712495011e-08,1.072902056663416e-07,0.09145321067735689,-0.028488287361587143,-0.0011491823231768892,9.799999982103131
1727706455.6526592,-3.869074037976106e-07,4.3316873736025315e-07,0.7438804044305999,-0.6683127590461144,4.3286025971647805e-08,1.062570082801575e-07,0.09271255500589902,-0.1026752502881925,0.032390754283339526,9.799994272243678
1727706455.667003,-3.8781615781757396e-07,4.329080228948472e-07,0.7429325148566209,-0.6693663259893486,2.66888957962893e-08,1.1218954608698358e-07,0.09469161724083022,-0.03324324420723487,-0.0012814946409731237,9.799999980091611
1727706455.6959667,-3.8871450893115204e-07,4.3262216613603046e-07,0.7419806323669025,-0.6704213161826473,2.5863703586509697e-08,1.1232478502332166e-07,0.09473418928017155,-0.031747825236323926,-0.0011791043959425889,9.799999985132688
1727706455.7348762,-3.900892979018522e-07,4.3242621619052153e-07,0.7406896478471999,-0.671847337995509,3.124660264493079e-08,1.1577563774467044e-07,0.09797571916293507,-0.04251629620585213,0.016411298993326853,9.7999991319066
1727706455.7905385,-3.909901796754398e-07,4.3209533999435817e-07,0.7396990841495964,-0.6729377868034376,2.361590503847239e-08,1.1658852133045307e-07,0.09824103263158322,-0.033243300601020154,-0.0012420939963561286,9.799999984159973
1727706455.8234692,-3.918802848757616e-07,4.3175069128215817e-07,0.738706578117555,-0.6740271444426498,2.2899939505903835e-08,1.1661059690131905e-07,0.09824673771877317,-0.033043026267160776,-0.0012651427727633226,9.799999986882044
1727706456.063388,-3.9157361138399664e-07,4.301024349018727e-07,0.7377340568197137,-0.6750914467003629,-1.3354890555628277e-07,1.1289518094089118e-07,0.09414545232766945,-0.007245083552589216,-0.43488148871708837,9.800001281377753
1727706456.0747116,-3.92655559052224e-07,4.2961725685594427e-07,0.736470055910368,-0.6764701447566186,2.4907139151616728e-08,1.104848210290566e-07,0.09345976723314642,-0.030309110909267245,-0.0012949030998038516,9.799999994681395
1727706456.1052704,-3.935217788729417e-07,4.2931650549656423e-07,0.7355210277155003,-0.6775018950438403,2.4230125442939226e-08,1.1049126370712803e-07,0.09345575186264755,-0.03044991949329633,-0.0011441634250581934,9.799999987450576
1727706456.2014728,-3.943800864355805e-07,4.2900679805228764e-07,0.7345705592360556,-0.6785323083710081,2.351397405571108e-08,1.1050812477401561e-07,0.09345566551696476,-0.03045295554072664,-0.0011441336575264513,9.799999987844785
1727706456.245693,-3.955125041306722e-07,4.28580273250303e-07,0.7333010229021292,-0.6799041181007444,2.2591461371768453e-08,1.1053111624375014e-07,0.09345566362964415,-0.030453022504372936,-0.0011441336600148632,9.799999988382524
1727706456.2763166,-3.9649458875765307e-07,4.2837028782665995e-07,0.7322806544709677,-0.6810029684863572,2.621125202576191e-08,1.2206561762454547e-07,0.1044187943672481,-0.06668378645550693,0.006566748220986208,9.799999430718229
1727706456.4896452,-3.9552050107022734e-07,4.2590709717456527e-07,0.7311373821337276,-0.6822302605765167,-6.869962426538608e-08,1.3565668776456824e-07,0.11754903705375148,-0.10197656077842851,-0.2726934157202607,9.800007754690167
1727706456.4996042,-3.9673741211953427e-07,4.251268703371346e-07,0.7295208332076205,-0.6839585907902032,-1.0646996806456398e-08,1.3908156058924182e-07,0.11587615870783896,0.011126568026041485,-0.09653644407173807,9.799999388856266
1727706456.541941,-3.9773253171093145e-07,4.246782865767829e-07,0.7283428662584991,-0.6852128641305675,2.5409157484762302e-08,1.351493155191394e-07,0.11457489641354741,-0.0344246964182319,-0.001869144308663064,9.800000001665849
1727706456.7845964,-3.973189689441151e-07,4.227126916461311e-07,0.7271051202393946,-0.6865261423436976,-2.3549811580983646e-08,1.4472053868168093e-07,0.12424368123889712,-0.06639441157549444,-0.15041522924524037,9.800006492669782
1727706456.7901425,-3.9839104778278915e-07,4.222261465552722e-07,0.725817048942816,-0.6878877898782655,2.816416081060057e-08,1.4698457673832822e-07,0.1250421465660132,-0.03778926479138018,-0.002574796092517658,9.800000008419643
1727706456.82844,-3.9984853352628047e-07,4.2159868607733693e-07,0.7240942625683874,-0.6897010213963768,2.7202139515462875e-08,1.4710052441803234e-07,0.1250596101697446,-0.03717191155404786,-0.0020790076065172296,9.799999990326405
1727706456.8611853,-4.0093086642255223e-07,4.211154711656021e-07,0.7227991822260016,-0.6910581322675287,2.639743955785448e-08,1.471477944047443e-07,0.12505971298174964,-0.03716829038961978,-0.002078293884390692,9.799999990695339
1727706456.9005597,-4.020041029195719e-07,4.206217353577934e-07,0.7215015582314179,-0.6924128114566462,2.5615123092057206e-08,1.4719318877786528e-07,0.1250597151930222,-0.037168212828953565,-0.0020782743671721392,9.799999991026214
1727706456.9423165,-4.0311025375277266e-07,4.1958772242502727e-07,0.7197255212856704,-0.6942587226745742,2.536686201585599e-08,1.510237983164421e-07,0.12837948460897983,-0.03851387742552757,-0.0029507203925259917,9.800000021239171
1727706457.1369557,-4.010784285562093e-07,4.158539170091821e-07,0.7184427047268843,-0.6955861413400823,-2.459150605961811e-07,1.4134848070428534e-07,0.11844271845314738,0.019386310271938826,-0.7620238223179502,9.800007819548684
1727706457.1582034,-4.020121384566028e-07,4.153275694813172e-07,0.7172194737620186,-0.6968473480298244,3.242164601289075e-08,1.3631523993901618e-07,0.11697547568917,-0.03026152154952317,-0.0038021768723375546,9.800000085846584
1727706457.202339,-4.034455642904301e-07,4.1483119415980934e-07,0.7155876368878717,-0.6985229659308967,3.1897064999237315e-08,1.363294087034844e-07,0.11694357794506798,-0.03138422804659126,-0.0018225452307116404,9.799999990348553
1727706457.2716913,-4.042473580274142e-07,4.141782397801712e-07,0.7143540547822882,-0.6997844556831543,-4.372462381922272e-08,1.375198166420587e-07,0.1189917226966367,-0.060472068603137495,-0.21280306768046028,9.79999875990902
1727706457.3055546,-4.0528154929429635e-07,4.1373023846374e-07,0.7130966150082142,-0.7010657727085892,3.070797845629474e-08,1.3967515739512938e-07,0.11976592396997113,-0.032462846189888095,-0.002583357876034309,9.800000017396684
1727706457.3311808,-3.991099644489283e-07,4.059813556925888e-07,0.7118929230365463,-0.7022880222032536,-6.500561361487595e-07,1.3093208938687028e-07,0.11170861188599525,0.007236018793040236,-1.9198959845635244,9.800002310292601
1727706457.4809372,-3.9107730855684534e-07,3.960913317227666e-07,0.7104117826678115,-0.7037862594896495,-6.243788142323606e-07,1.1579273481837235e-07,0.10160692680740231,0.01521934472924618,-1.919510204370475,9.800002256334425
1727706457.5052524,-3.8520119178731793e-07,3.8898907942770075e-07,0.709388736780379,-0.7048174374466329,-6.057838825657183e-07,1.054588241848235e-07,0.09449681655107445,0.02018154985746703,-1.9192624804045795,9.800002217289155
1727706457.5355084,-3.7999325540211487e-07,3.826825480518954e-07,0.7084606512031415,-0.7057503139896785,-4.3514635794109203e-07,9.287232103700963e-08,0.08099536844019464,0.12002825681191683,-1.4829958808174348,9.800004729368323
1727706457.7633488,-3.791382527086912e-07,3.810591226828387e-07,0.7080417411243956,-0.7061705833757489,2.6648544710468462e-08,1.0234972646599197e-08,0.004360975686329505,0.15883427743066528,-0.21887790164563586,9.800002685600814
1727706457.7875984,-3.802669563733292e-07,3.8220823218253404e-07,0.7080359548308218,-0.7061763849538695,1.1076352851995356e-07,-1.7826204512110904e-09,9.316139291417865e-05,0.0033956290016320216,-0.00017287414424551145,9.800000002114343
1727706457.8159862,-3.8139823376976645e-07,3.833844924725541e-07,0.7080358311829307,-0.7061765089273389,1.0770055021660139e-07,-1.9783499419886485e-09,1.9911018171071484e-06,7.259027413838145e-05,1.9283113453524886e-05,9.799999974452993
1727706457.8615003,-3.8285432117829024e-07,3.848991964852687e-07,0.7080358284984445,-0.7061765116188916,1.0345833622414042e-07,-1.9055581871216685e-09,1.181044554552572e-08,4.4534014713997743e-07,1.0728530204042569e-05,9.799999975445333
1727706457.9033055,-3.8390860423200515e-07,3.859959330355291e-07,0.7080358284827698,-0.7061765116346063,1.0038543080768687e-07,-1.8492683075321686e-09,2.5223175773885185e-10,2.4563473856543008e-08,1.0697057091717282e-05,9.799999976176723
1727706457.9431005,-3.849315752118962e-07,3.870600973169753e-07,0.7080358284824366,-0.7061765116349391,9.740331806822137e-08,-1.7943732077793734e-09,5.190028312691746e-12,1.607934438516158e-08,1.0723944037830952e-05,9.799999976857487
1727706458.1240528,-3.8593584636543955e-07,3.8808292276262694e-07,0.7081340326112353,-0.706078035246424,9.476174443495893e-08,-1.3922402046097619e-08,-0.027814851818698534,0.38946769869674946,0.05347905028407313,9.799999959922417
1727706458.153325,-3.8672155310014283e-07,3.8990739639392575e-07,0.7094615542475773,-0.7047441401276852,9.08912245712259e-08,-1.313233265769339e-07,-0.132600206424094,0.35396803251453,0.04506284769388339,9.799999927181679
1727706458.1827204,-3.8677766129827144e-07,3.9177923966619895e-07,0.7112120773149946,-0.7029775110776922,8.9552420969131e-08,-1.8948050248372352e-07,-0.1716382379595341,0.04433458222468463,0.003723819997635583,9.799999891378766
1727706458.263506,-3.866652721865192e-07,3.9373208874585684e-07,0.71310985405663,-0.7010523062133289,8.691755616161102e-08,-2.0329030962765668e-07,-0.19541347054374933,0.31813630803397724,0.03955141142996085,9.799999976884829
1727706458.3061745,-3.862251512600833e-07,3.965307145206263e-07,0.7159542901498641,-0.6981471581376647,8.322412103721837e-08,-2.2840950896620596e-07,-0.20406964425785828,0.0027099915294044362,-0.005551867845374626,9.799999985858545
1727706458.336136,-3.857955748644313e-07,3.986381262384765e-07,0.7183260149035119,-0.6957066452985279,7.949010918983467e-08,-2.6470429364485464e-07,-0.24945934344654339,0.3149069087881027,0.029374640105125194,9.799999946937293
1727706458.5330458,-3.872900449823444e-07,4.034543464515101e-07,0.7212035267803822,-0.692723229695111,7.355045723426401e-07,-3.1437734750620187e-07,-0.27503327900888647,-0.10767403789639088,1.7932121309309614,9.800010772496586
1727706458.5405698,-3.9474186871453455e-07,4.1570457278599195e-07,0.7247639929225618,-0.6889972094011819,6.724729120108539e-07,-2.9189678017348366e-07,-0.2486152027446679,-0.06386039283973927,1.7048134662921732,9.799997907935447
1727706458.5823271,-3.999592607806362e-07,4.24381206725316e-07,0.727213256825715,-0.6864115959805724,6.524133926822566e-07,-2.778797525016024e-07,-0.23193267025979816,-0.04883727398929102,1.7071407090076403,9.79999787566414
1727706458.8241713,-4.027745093371564e-07,4.30382572901463e-07,0.7295888759361878,-0.6838860081254933,-2.5539384891474746e-08,-2.7866698289635626e-07,-0.24561136178717122,0.3805532665462443,-0.062003955740569786,9.799986989617071
1727706458.8272526,-4.011254930334816e-07,4.3219235632986145e-07,0.73250012566508,-0.6807668954203738,2.014873204341495e-08,-3.499148633915457e-07,-0.2948852944100477,0.13576649756579579,0.022798949356864242,9.799999474098607
1727706458.858891,-3.9853687465700895e-07,4.3471258065013595e-07,0.7365145142258159,-0.6764217399924121,7.859887123435335e-09,-3.5370816302393706e-07,-0.2945224076341467,0.04541442356313057,-0.02289616209711606,9.800000457649032
1727706458.8884623,-3.980462575745782e-07,4.381728043236463e-07,0.7394859177685087,-0.6731720266185426,4.220740073620078e-07,-3.522482591581598e-07,-0.29197784129961457,0.017435306174194146,1.1231494859774378,9.80000677368676
1727706458.940805,-3.9637167116121247e-07,4.4030869815502333e-07,0.742414636511,-0.6699406746077512,7.105508910156078e-09,-3.501747598936644e-07,-0.29059287370381887,0.05492144419813616,-0.008340676696952804,9.799999855878935
1727706458.9909737,-3.8695370745517587e-07,4.350244102305837e-07,0.7461883153927991,-0.6657349307126055,-6.769417969630636e-07,-3.28840177705084e-07,-0.27444612069358604,-0.02903321033871539,-1.9503498415308615,9.800002405184651
1727706459.2024024,-3.785577593678354e-07,4.291764758100355e-07,0.7488136981092437,-0.6627805409965132,-6.568058796297717e-07,-3.0295977263658155e-07,-0.25797553777052207,-0.04876020335066949,-1.9483254879756824,9.800002360044232
1727706459.2075002,-3.742058724604599e-07,4.276393944628245e-07,0.7514663711190113,-0.6597713945579191,-1.0625381883221032e-07,-3.1237669701766406e-07,-0.2812257795960586,0.22227920190983913,-0.42303282102178374,9.80000186100108
1727706459.246233,-3.7042737225544196e-07,4.285876580748524e-07,0.7556609073091013,-0.6549630471747737,-9.014679809594745e-08,-3.797463542951935e-07,-0.34145204857467054,0.2214505340935322,-0.3970635227475163,9.80000038406808
1727706459.3120868,-3.672512607170979e-07,4.29559387480189e-07,0.7592934861481504,-0.6507483399077318,-8.847953746585802e-08,-4.2890210616775884e-07,-0.3856804927786572,0.21817081115304768,-0.40742470258527114,9.800000478881412
1727706459.350254,-3.638221946195188e-07,4.307873739487431e-07,0.7633313841861123,-0.6460071190909552,-8.497539119238702e-08,-4.777473162739325e-07,-0.4299337811101901,0.21505231100133823,-0.4132768057323538,9.800000487103784
1727706459.3725502,-3.611724223675521e-07,4.334458553826903e-07,0.767602654403162,-0.6409260214353147,5.930629554745611e-08,-5.026185426332131e-07,-0.44155179962221763,-0.04636565548676966,-0.05424138972100985,9.800000397497454
1727706459.5695493,-3.581374254523313e-07,4.375940931056985e-07,0.7732420275823588,-0.6341110050929591,5.714262404302912e-08,-5.055467695882066e-07,-0.45808452589742993,0.31121757826628144,-0.005865230674247384,9.799999884848754
1727706459.5729616,-3.5550659937336125e-07,4.408223286603622e-07,0.7779942593654765,-0.6282713843507779,5.542416215531903e-08,-5.811343168900298e-07,-0.523851997850957,0.31216267201442954,-0.020986449518588978,9.80000000961708
1727706459.6025612,-3.5255736777109396e-07,4.4458255823481653e-07,0.7832759671266355,-0.621674158479755,9.407951280249628e-08,-6.50742669301407e-07,-0.577485208179428,0.15306168870536982,0.0543845212571139,9.800000417319131
1727706459.8735824,-3.48102561611137e-07,4.4967605591693066e-07,0.7905401747281131,-0.6124101829170714,5.063691477365066e-08,-6.771597121518634e-07,-0.6057874881007058,0.3143806958370226,-0.04270252854339581,9.799999816800561
1727706459.8757694,-3.4429303194374336e-07,4.535375536959657e-07,0.7964701053080929,-0.6046779071126966,4.9171360327099745e-08,-7.532299081916489e-07,-0.6715421180434408,0.3153037008861762,-0.06245917120122305,9.800000058472165
1727706459.9110217,-3.4033828420392976e-07,4.5805015971545654e-07,0.8026806431082226,-0.5964090753660984,6.609932750580895e-08,-7.920449886182116e-07,-0.6926057210732497,0.03867305985179745,-0.056214681703507664,9.799999896064808
1727706459.9495533,-3.3463242977142874e-07,4.6377281676166534e-07,0.8108782047467679,-0.5852149494556095,6.113569381623055e-08,-7.965498335837043e-07,-0.6939230545416235,0.010186449413167976,-0.06729487010610172,9.800000062840386
1727706460.0155494,-3.302687329338571e-07,4.679921985152701e-07,0.8169257999152553,-0.5767427827311687,5.9249874141118644e-08,-7.977845979596445e-07,-0.6939529302465978,0.009538008023250907,-0.06741124162796694,9.800000064022951
1727706460.046713,-3.257983221294193e-07,4.720736370628335e-07,0.8229472014660156,-0.5681178606582651,4.055154799172434e-08,-8.096673312902458e-07,-0.7158743880844617,0.31733470383711715,-0.0769256307078614,9.799999767623527
1727706460.3005018,-3.2107695939941293e-07,4.764555500386491e-07,0.8293062713927387,-0.5587943344633541,6.565284687377532e-08,-8.752927253994943e-07,-0.7632607720415004,0.11158042349541678,-0.049526915874823184,9.799999636370252
1727706460.3068082,-3.1461488452552393e-07,4.81637425225817e-07,0.8367275820592187,-0.5476193508460072,3.6274134590150255e-08,-7.34221133803897e-07,-0.6152338762213484,-0.5115138418782913,-0.16651288765680392,9.800000185587512
1727706460.3342857,-3.1066095588295585e-07,4.848433753653162e-07,0.841145742638712,-0.5408085055178384,3.510176966521445e-08,-6.06308277673815e-07,-0.5042226362780794,-0.5144169947056035,-0.13617032878619062,9.80000015110483
1727706460.3649414,-3.074897384362624e-07,4.874886245299886e-07,0.8446182374276014,-0.5353690624273683,3.409895771077193e-08,-4.782289772926656e-07,-0.3932271190043241,-0.516372617644009,-0.11162017925224528,9.800000123278778
1727706460.4801302,-3.0450049382036183e-07,4.901706081353295e-07,0.8478231600426634,-0.5302790673739056,3.300631693572888e-08,-3.0720026700398186e-07,-0.24526507842536005,-0.5177823411470273,-0.08790566888354472,9.800000096431912
1727706460.5142238,-3.0441669964290437e-07,4.937473165249146e-07,0.849567399626405,-0.5274800787628777,2.1514575615882053e-07,-2.6211879050013873e-07,-0.23319418841734854,0.21454872500397787,0.5327409170187755,9.799996745294427
1727706460.7252886,-3.0396190561689855e-07,4.971108451167312e-07,0.8516485977075947,-0.5241132187059852,1.6814851975253314e-07,-3.15533724917084e-07,-0.27911948920435137,0.21828079493206276,0.4122865331014545,9.799999429973356
1727706460.7318454,-3.080629461845459e-07,5.099276162363212e-07,0.85437974524162,-0.5196491613776639,6.262308464111644e-07,-3.0531320315942976e-07,-0.2525264605971902,-0.06325878948287059,1.7042818562134054,9.799997842875502
1727706460.7601604,-3.0826021062572436e-07,5.143991977297708e-07,0.8560742868156574,-0.5168527986310067,1.2314131933900577e-07,-2.519584795953199e-07,-0.20083132706465462,-0.1824957725541005,0.33329657000109064,9.799997137745926
1727706461.0163062,-3.0669414457789866e-07,5.15286244491437e-07,0.8575891239092377,-0.5143353911138397,-1.0381245792386081e-08,-2.3564970416402466e-07,-0.19527957418814867,0.018962675583804406,-0.004879741979415268,9.79999996291206
1727706461.0185564,-3.0935053892181383e-07,5.231497088585474e-07,0.8590003972344151,-0.5119749188688326,4.0286491752322357e-07,-2.2030881453279244e-07,-0.1731234740067225,-0.15596978386081312,1.151259774753363,9.799994577495415
1727706461.0410125,-3.051581204287955e-07,5.196101597241654e-07,0.8603692438216608,-0.5096712315653891,-7.181199239175977e-07,-1.530788316278259e-07,-0.12496409515850762,-0.018697797890585066,-1.931010821528256,9.800002469664648
1727706461.075371,-3.0001673614067134e-07,5.130658949257035e-07,0.8613374588747852,-0.5080332488516615,-2.7601359118612114e-07,-1.5255351522629443e-07,-0.13717240560339988,0.23642224087534033,-0.7279573346294913,9.800008537597511
1727706461.1017427,-2.9613930838224345e-07,5.089240917192129e-07,0.8624970367896138,-0.5060621123229725,-1.8780800305833293e-07,-1.8817001513220572e-07,-0.17010831346585772,0.27183018857465047,-0.5134279833349886,9.800002128691236
1727706461.1531034,-2.920348157525712e-07,5.063824508821684e-07,0.8645957671053744,-0.5024680681427699,-1.7614440190244808e-07,-2.5525849313790116e-07,-0.2259680100518052,0.21017105221393337,-0.5179488507393852,9.800004429718195
1727706461.3907828,-2.892559751793253e-07,5.05779648059526e-07,0.8665275283505103,-0.4991292844648729,-1.2133866527026752e-07,-3.082078370245915e-07,-0.2726932417391926,0.2259194678315294,-0.38078464115702687,9.800000536414474
1727706461.3938427,-2.863313012526695e-07,5.057358876512017e-07,0.8688039941739285,-0.4951561568910259,-1.1230156382823542e-07,-3.634626194048716e-07,-0.32057850504532176,0.22029620794192944,-0.3710867890282405,9.800000355750404
1727706461.4322875,-2.8213108097104826e-07,5.063619579854874e-07,0.8722806967541072,-0.4890055071978566,5.758676133990522e-09,-4.2192373978569375e-07,-0.3659734902882331,0.06554008151133338,-0.08353429197398096,9.800001698629131
1727706461.4622316,-2.795496314635811e-07,5.08309477101579e-07,0.8749685860377723,-0.484179691278687,3.129661624706535e-08,-4.2806005673729795e-07,-0.3686645343247882,0.006451113015170041,-0.019608025331600668,9.800000039486488
1727706461.5470824,-2.7695752280205584e-07,5.10274867334216e-07,0.8776336792270244,-0.47933195708829957,3.0720359886411315e-08,-4.2875581461595933e-07,-0.36882618740437634,0.002929843160493423,-0.019021253169354598,9.800000015365987
1727706461.5787396,-2.7434523280348553e-07,5.122153549424575e-07,0.8802721461087648,-0.4744691231099572,2.977526992254713e-08,-4.291091315007006e-07,-0.36883590491544227,0.002718609362037197,-0.019034469742700538,9.800000015274524
1727706461.7931945,-2.705381085945473e-07,5.149415388598114e-07,0.8841934932561646,-0.46712082642836916,3.2265474662131416e-08,-5.020012626937527e-07,-0.43422298616812055,0.08858024477426395,-0.008905828038691948,9.799999870043113
1727706461.8010259,-2.671838886080569e-07,5.17099968959489e-07,0.8875204814229883,-0.46076826611038246,2.2866348140947804e-08,-5.687853542248316e-07,-0.499993458688495,0.31180398913364166,-0.015405877815430397,9.800000010759758
1727706461.8304942,-2.6341825646884e-07,5.197060888580668e-07,0.8911739327489051,-0.45366179207479024,3.7958741120437434e-08,-6.28062776201222e-07,-0.5407573663611122,0.07987536436133258,-0.013672039940284347,9.799999628956682
1727706462.0940564,-2.5802525707869787e-07,5.23134911177479e-07,0.8960537170429561,-0.4439456455166122,3.068617487613803e-08,-6.360971206721616e-07,-0.5440951384552659,0.0076090450114559595,-0.04113956719858652,9.800000039691797
1727706462.0959764,-2.5371028103688715e-07,5.255886279397162e-07,0.8999340109803269,-0.4360261183467343,1.9550571699484155e-08,-6.991618549500334e-07,-0.609858454768026,0.31408772519825756,-0.04401320833637094,9.800000044958937
1727706462.1224647,-2.4897341324455734e-07,5.285283483299541e-07,0.9041484614803679,-0.427218398014812,8.152725274868083e-08,-7.724818059307079e-07,-0.667358481260839,0.1982432466057533,0.09557003059777452,9.8000011086691
1727706462.1643186,-2.42120584639957e-07,5.325402902536013e-07,0.9098315513802326,-0.41497776821499355,3.305572548089693e-08,-7.927248684817884e-07,-0.6759622695259802,0.013525368510265387,-0.06287943561684864,9.8000000557834
1727706462.1926265,-2.368804599233848e-07,5.354362622225475e-07,0.9139933596202356,-0.40572914434357804,3.185913554415414e-08,-7.937718904563416e-07,-0.6761575391703093,0.009293171903968679,-0.06395996005349414,9.800000067696665
1727706462.254942,-2.3157547466763233e-07,5.381901311436296e-07,0.9181048332600725,-0.39633762771676223,1.4787715454685154e-08,-8.056840731660923e-07,-0.6980883508939907,0.31682755993240935,-0.07114776281574132,9.799999785116176
1727706462.2904513,-2.2600178781133457e-07,5.411823240325274e-07,0.9223556159839053,-0.38634196984356556,3.304832475682468e-08,-8.549894190279017e-07,-0.7287581287231372,0.05310236500376019,-0.06652794371520802,9.800000025213967
1727706462.485399,-2.1801715417785422e-07,5.448496631697993e-07,0.9281422916126505,-0.37222558552532775,1.2825504589600192e-08,-9.220154473133836e-07,-0.7957003928820057,0.3188807805710875,-0.10551296464892862,9.800000118899966
1727706462.4976258,-2.115874456855194e-07,5.482160794001784e-07,0.9327277460766115,-0.36058140786582316,8.298008750648279e-08,-9.918518968860276e-07,-0.8481107740209262,0.16452149757535606,0.048295113067274895,9.80000041096756
1727706462.5276744,-2.0474810844553493e-07,5.514748017745844e-07,0.9372687132640432,-0.34860774394155203,3.661193156988739e-08,-1.0078859022644003e-06,-0.8547245911791935,0.023535436784065104,-0.09915834598426235,9.800000067573277
1727706462.5702314,-1.9547303165428118e-07,5.555873472977728e-07,0.9430931278516925,-0.3325287238699299,3.4456979711447224e-08,-1.0099262358745438e-06,-0.8551382409210158,0.014594956032670697,-0.10234385208376155,9.800000113065598
1727706462.59955,-1.884223561459383e-07,5.584267762839356e-07,0.947315939245157,-0.32030065758864507,7.572897505406065e-09,-1.0221872528817787e-06,-0.8770634176937323,0.3225891677056965,-0.13760420224785455,9.799999670749212
1727706462.6295385,-1.8110112635179286e-07,5.615433098677911e-07,0.9515673854331141,-0.3074402559516873,3.697324923989437e-08,-1.071846503996313e-06,-0.9076884041211165,0.05935497278942396,-0.10514695125135995,9.800000020214368
1727706462.8699684,-1.7072394074011559e-07,5.650702115268799e-07,0.9571889949561334,-0.2894636901832741,5.6782399871168704e-09,-1.1393729839287883e-06,-0.974629333379163,0.324572369866119,-0.18029668684903227,9.80000020947884
1727706462.9002962,-1.625068382193859e-07,5.684912788854767e-07,0.9614750786484199,-0.2748921118141905,1.0840936627258545e-07,-1.2085812431994547e-06,-1.0265091668630366,0.18086216851217618,0.06100114668233656,9.800000511214035
1727706462.9326136,-1.5384274101773994e-07,5.716412043137275e-07,0.9656172211803987,-0.25996804065018103,4.133053482816353e-08,-1.2265380995229686e-06,-1.0336337442125239,0.030795638679055413,-0.14553046120650368,9.800000104076705
1727706463.17337,-1.450501714471047e-07,5.741591280502914e-07,0.9693965450062781,-0.2455001803044966,1.0548540978074817e-09,-1.1640679559189718e-06,-0.9598840858029211,-0.5004392936197756,-0.298203408537278,9.800000355928391
1727706463.1912177,-1.3456326503397967e-07,5.767453398156158e-07,0.9735090959698729,-0.22864828900205986,6.663530165300308e-10,-9.87514630605001e-07,-0.8117999844435053,-0.5087939228807209,-0.23490390740881348,9.800000281037427
1727706463.2245557,-1.2780727106995754e-07,5.783135752731922e-07,0.9759797291659444,-0.2178613509937427,5.442084769854498e-10,-8.552179420120479e-07,-0.7007319787549732,-0.5131751385097709,-0.1941623066593536,9.800000232816279
1727706463.2526968,-1.2185796328506119e-07,5.796378447098456e-07,0.9781709470261374,-0.2078018248082526,9.92998703014801e-10,-8.26203646724755e-07,-0.7087194711892342,0.3136151596300252,-0.07424797667946871,9.800000084781702
1727706463.317625,-1.1390078676200847e-07,5.846609493749705e-07,0.9812011532107836,-0.19298781551557515,6.593795762217499e-07,-9.152472900507211e-07,-0.7667434351255452,-0.11487614875674541,1.6701698072882079,9.8000109792633
1727706463.3483243,-1.0833475335266587e-07,5.921872570557884e-07,0.9833504879412258,-0.18171906302144264,2.384963485406504e-07,-9.256470848252408e-07,-0.772237621473226,0.1646352866256358,0.5833273489712265,9.799996582189834
1727706463.5726857,-1.0267203699152256e-07,6.008552508884515e-07,0.9853946370538169,-0.17028625683009435,6.311191542386294e-07,-9.409268305857959e-07,-0.7670117176436104,-0.050687349997241025,1.6710222007159143,9.799997835366788
1727706463.599665,-9.537251815916407e-08,6.145521833850019e-07,0.9878358687312406,-0.15550014934914919,6.059752558579921e-07,-9.282059434764336e-07,-0.7388653958622887,0.004312293312502174,1.681941826494396,9.799997785344573
1727706463.6299257,-8.957116368637823e-08,6.230389777095869e-07,0.9894649560690123,-0.144772582732197,3.451100052291229e-07,-9.140504310379959e-07,-0.7111269098666543,-0.07938959575808732,1.0001554467001093,9.799994495573886
1727706463.6600559,-8.35245476430326e-08,6.288994578335887e-07,0.9909102037777988,-0.13452497184031603,2.932627167800986e-07,-8.794880764882582e-07,-0.6764290583141636,-0.0895667064488615,0.8935728023348979,9.799993807781997
1727706463.6897922,-7.704476784322198e-08,6.296984101334389e-07,0.9921978868572068,-0.1246729855088573,-7.04033335400548e-08,-8.491135684918165e-07,-0.658636311601059,0.12090789267129863,-0.06908650040405212,9.799999322743897
1727706463.7373717,-6.894519775079305e-08,6.336035026698025e-07,0.9937302951092892,-0.11180384868866755,-6.244009534615584e-08,-8.339303118035372e-07,-0.6445450951992998,0.16028733967879458,-0.021673504657018738,9.799999286656123
1727706463.9286618,-6.319779989649485e-08,6.392744339589936e-07,0.9947552195750253,-0.10228417828691666,5.289076801967819e-07,-8.256764649004667e-07,-0.6332749437363989,0.10642760805824873,1.625298158879657,9.799997804457279
1727706463.9544795,-5.765929244440693e-08,6.469698164089338e-07,0.9956650584179695,-0.09301124364892044,3.769747980134785e-07,-8.135242877272642e-07,-0.6117762120043249,0.04311340582267238,1.2414756867439192,9.799995590792175
1727706464.0085812,-5.004940963546474e-08,6.510238514562977e-07,0.9966740311832489,-0.08149156744415958,-5.2522214713026016e-08,-7.548356573729983e-07,-0.5655594743359241,0.14543573154818007,0.10801537010195314,9.799996795154186
1727706464.2636032,-4.4590725919359225e-08,6.539812239460212e-07,0.9973108858444037,-0.07328708600989109,2.44580325664161e-07,-7.213086164596802e-07,-0.5329104706501981,-0.03153075030791337,0.9213895614313709,9.799996545046715
1727706464.2815542,-3.95381519950021e-08,6.566693228003438e-07,0.9978251306204964,-0.06591667999646572,9.570204504004533e-08,-6.437118776039355e-07,-0.46958255714522223,-0.12257129584528977,0.5287739961116107,9.799998615782616
1727706464.3170726,-3.376287259424459e-08,6.586370265765262e-07,0.9983312852592319,-0.057746384061816314,7.54824716693854e-08,-5.152759742142216e-07,-0.3728719618845018,-0.16643484179953666,0.4988316663536021,9.799999317257441
1727706464.344889,-3.029484338348716e-08,6.604485446047381e-07,0.9986058511756144,-0.05278592612988536,2.540673279122636e-07,-4.3128851595030665e-07,-0.31435865032221405,-0.08142245031111989,1.0221669790548396,9.800003853208835
1727706464.4228945,-2.7115873936759206e-08,6.592361318904627e-07,0.9988354596751747,-0.048246497230859775,-1.3034308550264566e-07,-4.0320861661622216e-07,-0.3016657533212933,0.13224725129477222,-0.007884673876059333,9.799999784908003
1727706464.4581468,-2.4189276472639277e-08,6.574885312697578e-07,0.9990211622414324,-0.04423479844358641,-1.3396937532197325e-07,-3.459380031599106e-07,-0.2580705117477907,0.051286500536234465,-0.03205312238540644,9.800000649970066
1727706464.6776626,-2.0789427199621263e-08,6.551276999852959e-07,0.9992150531027988,-0.03961410925845804,-8.665203793231187e-08,-2.7106716142723953e-07,-0.19067562064912066,-0.3271133655580379,0.04006281303338217,9.800001453321324
1727706464.689127,-1.9209737327095772e-08,6.566884389270022e-07,0.9993003913776038,-0.037399569411105615,1.8580986196561927e-07,-1.796941460117224e-07,-0.13055178175142476,-0.1451103635103087,0.8291531083595024,9.800001405993386
1727706464.717388,-1.7935997324229123e-08,6.551126629421783e-07,0.999368974538623,-0.03551975125464213,-1.2372615600390246e-07,-1.612706512957013e-07,-0.12479163779505359,0.05643077457104485,-0.0003512306621702751,9.799999919989357
1727706464.774922,-1.6389322397058267e-08,6.551829462936155e-07,0.9994503814300608,-0.03315018942444142,-6.337067509498591e-08,-1.4455586380606648e-07,-0.11091668261071672,0.015056438859122211,0.1606770245718284,9.799992442106864
1727706464.799269,-1.529372141008891e-08,6.534424356958726e-07,0.9995036776969497,-0.03150235340167412,-1.2086801143514738e-07,-1.4070889840465752e-07,-0.10979367088876044,0.05418884961898081,-0.001286595614728575,9.800000004466144
1727706464.8298995,-1.4208055699552181e-08,6.517039962454522e-07,0.9995541939060144,-0.029856547765489905,-1.1746774910744303e-07,-1.403288071077411e-07,-0.10976948377867467,0.05502416720277246,-0.0016292290866380343,9.800000024475807
1727706465.0713105,-1.2869039859435988e-08,6.491097159203973e-07,0.9996041720624541,-0.028133595485008434,-1.4746323714393598e-07,-7.732464621695134e-08,-0.047101548403562024,-0.3950398978938886,-0.15700641198381812,9.800000240970869
1727706465.102071,-1.2640919197936179e-08,6.479320995561941e-07,0.9996118985580781,-0.02785771456337416,-1.0766609173571412e-07,-1.4112864460355377e-08,-0.014966719123522793,-0.01737158486569292,0.0007098782893552499,9.799999835412164
1727706465.1317365,-1.2589408400754798e-08,6.463213066615829e-07,0.9996154289638286,-0.027730744256923623,-1.0591860815568192e-07,-3.549964429503187e-09,-0.007692874025055382,-0.0017674247331540762,-0.0009029897855374649,9.800000027103819
1727706465.3846488,-1.2568002194975673e-08,6.445915018139228e-07,0.9996225856291081,-0.027471554374674023,-1.3762404146037544e-07,-2.1734180324696666e-08,-0.03673577299835583,0.4124766250915105,-0.04087885778912236,9.799999423828133
1727706465.3983588,-1.1621835545283634e-08,6.428027671958764e-07,0.9996714736673308,-0.02563093317408166,-9.027886448818066e-08,-1.3328396221590347e-07,-0.10299163071693937,-0.0081626677486468,0.014813691894341336,9.79999856560055
1727706465.4328077,-1.0637170866618254e-08,6.413812531756344e-07,0.9997093372549699,-0.024108940350361263,-9.635104972827229e-08,-1.2781224157571247e-07,-0.10131943031833374,0.04956613779139206,-0.0015107560613697893,9.800000017731788
1727706465.4622362,-9.664556564810786e-09,6.400042944244862e-07,0.999744511406238,-0.022603360650421345,-9.142671789822421e-08,-1.258169462882644e-07,-0.09861988526208451,0.013506121849333001,-0.00058684705900169,9.800000056568832
1727706465.5501966,-8.41958064610628e-09,6.382167448500013e-07,0.9997867657087807,-0.02065001484668061,-8.989058617861921e-08,-1.2235279014431225e-07,-0.09759772429170675,0.04877203857733503,-0.0013185865738845495,9.80000001876995
1727706465.5796683,-7.46067786908673e-09,6.369226632078529e-07,0.9998181282878975,-0.019071191532768372,-8.71779215517135e-08,-1.3720682935561117e-07,-0.11052500062387977,0.0935292854915549,0.0039793316712022795,9.799999998245692
1727706465.806107,-6.401924831408891e-09,6.356673203582815e-07,0.9998491503267806,-0.017368839639147315,-8.456097880270485e-08,-1.4405561330288263e-07,-0.11769043883829107,0.14233148650472188,0.010322128639201919,9.800000013296067
1727706465.8122292,-4.886130712653635e-09,6.340503751796187e-07,0.9998879081447398,-0.014972346026387029,-8.140608074864732e-08,-1.5109183832901093e-07,-0.12005408804818644,0.06081343918515855,-0.001870746354911325,9.800000017496343
1727706465.8434057,-3.7459279606221425e-09,6.328774426246049e-07,0.9999132516896102,-0.013171525921826077,-7.901915562024551e-08,-1.508839352526584e-07,-0.12006806784160727,0.060331311755654884,-0.001944203905878566,9.80000001729633
1727706465.871641,-2.610518075185842e-09,6.31712650218384e-07,0.9999358217283578,-0.011329272881954622,-8.171006267565144e-08,-1.5566928722237254e-07,-0.12834166769211444,0.1762084697025562,-0.0002676517442369864,9.799999926758268
1727706465.9017587,-1.3777715758016592e-09,6.306033909013735e-07,0.999956171770652,-0.009362400193578313,-7.440150487697247e-08,-1.6512065794990397e-07,-0.13146464305870134,0.0684640960409898,-0.0020118058277122817,9.800000017258128
1727706465.94219,2.786968250356946e-10,6.29176989792172e-07,0.9999773401828878,-0.006731947739048727,-7.15047674225265e-08,-1.649779973203717e-07,-0.13153310974573051,0.0661027260094427,-0.0023305902752740726,9.800000016249927
1727706466.1471248,1.5165656577847797e-09,6.28167177392801e-07,0.9999886399461889,-0.004766547825888423,-6.425090803879949e-08,-1.6381792339409532e-07,-0.13001964254541817,0.044876945273691744,0.009135229972704662,9.800000101283246
1727706466.1749067,2.732157508791583e-09,6.271629964877807e-07,0.99999601272228,-0.002823922652630484,-6.74314920130926e-08,-1.6180207451588072e-07,-0.12944844627091862,0.06461634229648383,-0.0022851022121438383,9.800000013795504
1727706466.242338,4.343706916161948e-09,6.258610551890565e-07,0.9999999723437589,-0.00023518522288951127,-6.483067714651417e-08,-1.6145022936802016e-07,-0.12943592715729413,0.0650482011240518,-0.0022597900661794844,9.80000001484044
1727706466.486115,5.543816714998888e-09,6.247386811086044e-07,0.9999983078341212,0.0018396544521212532,-9.839394031007897e-08,-1.7703887530177518e-07,-0.15609641306758948,0.4385700106028141,-0.05054368055999512,9.799999410216135
1727706466.4923093,7.22867630840248e-09,6.231182713003108e-07,0.9999886575331973,0.004762856765056944,-7.246512822870583e-08,-2.5294824964990657e-07,-0.2035428912475825,0.16442417329603498,-0.03339626904679365,9.800001659504806
1727706466.520565,9.791120747210032e-09,6.220007022198831e-07,0.9999612958474018,0.008798113820452147,-5.6753343919167364e-08,-2.5158926474463124e-07,-0.20025738329406267,0.09642723897518998,-0.005469964901340381,9.79999999895641
1727706466.5517561,1.1684133336585979e-08,6.213866992189504e-07,0.9999302335830678,0.011812195652175395,-9.353687189265795e-09,-2.5231775615696297e-07,-0.2024997584282951,0.13247795544412633,0.12627722070414052,9.80000076183477
1727706466.6146507,1.3598197667111278e-08,6.205914103463879e-07,0.9998895651993756,0.014861271985220803,-5.4077681991268554e-08,-2.54732703720448e-07,-0.20338428464528835,0.1025191856840835,-0.00509485096884098,9.800000000002928
1727706466.6434984,1.550200189961443e-08,6.203578863697284e-07,0.9998408280512919,0.01784148428023441,-3.924075332261063e-08,-2.457372182079239e-07,-0.19550400366318038,0.07520341669844048,0.031749497227820486,9.799998209008313
1727706466.879793,1.7938082636629637e-08,6.192849251435998e-07,0.9997646409753846,0.021694761002977292,-5.2073286306245355e-08,-2.3810409188916578e-07,-0.18602843506868277,-0.025500501278625052,-0.02208785107795963,9.800000020353133
1727706466.8834822,1.9650587266054166e-08,6.184930926729884e-07,0.9997013037406628,0.024439789255143285,-5.0457109635865375e-08,-2.2749117476928592e-07,-0.18269550568009024,0.08943797650184328,-0.004864622204823105,9.8000000157804
1727706466.909091,2.1343385739024072e-08,6.17719244033736e-07,0.999630600567954,0.027178344463364645,-4.901085925508684e-08,-2.2696818126335368e-07,-0.1826235761028539,0.0919184715065477,-0.004488432534864757,9.800000014129287
1727706466.946565,2.3593804207914133e-08,6.167133257379994e-07,0.9995246657412699,0.030829248684028476,-4.7153185662439105e-08,-2.2657619506666882e-07,-0.18262199904685622,0.0919728566718642,-0.004480187507022307,9.800000013726665
1727706466.9761856,2.526370660502997e-08,6.15974960981084e-07,0.9994375910755247,0.03353358830742437,-4.582610741216228e-08,-2.2319984768847078e-07,-0.18011572902686915,0.08876507160186106,-0.004668496010640136,9.800000015399206
1727706467.0089033,2.6918475417639288e-08,6.152551123358596e-07,0.9993433709176474,0.03623295464869669,-4.4507785498457884e-08,-2.2276752719945903e-07,-0.18006163738787204,0.09063034197862721,-0.004362353959634872,9.800000013056408
1727706467.281898,2.898076149384392e-08,6.108469262716021e-07,0.9992071354929193,0.039813319123887025,-7.376437426812819e-07,-2.1953331878625905e-07,-0.17640969317767524,0.04139260944247346,-1.9372689863464052,9.799988665868094
1727706467.3189666,3.010717514895124e-08,5.999591384812528e-07,0.9991028136943312,0.04235053326357574,-7.156537211618431e-07,-2.0158063656710265e-07,-0.1657854527482515,0.028235665536564706,-1.935931234684645,9.80000246907287
1727706467.350412,3.138078531326645e-08,5.959784106612425e-07,0.9989990093995242,0.04473230620494545,6.232644746143324e-07,-1.863228118190652e-07,-0.15548146928330372,0.011401602365102508,1.717387715760953,9.800024078093628
1727706467.5924482,3.316172862725837e-08,6.050807685616272e-07,0.9988966793274738,0.046961942338232865,6.047988421897643e-07,-1.7727979120012886e-07,-0.14554513338814196,0.019033504547205742,1.7184821729229036,9.799997795902149
1727706467.604742,3.4699326021572874e-08,6.085199334849858e-07,0.9988074272205211,0.04882338915675538,1.588469317084195e-07,-8.479875043802989e-08,-0.06081124029998787,-0.2569135526189577,0.4820686152864844,9.799999783525177
1727706467.6313128,3.5080752484068684e-08,6.092957532442093e-07,0.9987825759291948,0.04932915993476539,-2.497600943900251e-08,-3.2255926346218646e-08,-0.029359268597213738,-0.01768237281148369,0.017570079920510545,9.799999012988295
1727706467.665625,3.5243922633549704e-08,6.088096040146102e-07,0.9987613486301763,0.049757094791190226,-3.2059996821296754e-08,-2.9647169496579463e-08,-0.028469258983557306,0.013085116159791008,-0.00014725256953669337,9.80000000380971
1727706467.7359474,3.5535676633200006e-08,6.094881213389483e-07,0.9987319510831206,0.05034371743653937,-3.282822575616017e-08,-3.1105876043575406e-08,-0.02946071816842221,0.014695367381005714,0.0017232235924927082,9.799999924931065
1727706467.7680504,3.573561902316293e-08,6.105646784938138e-07,0.9987222644338982,0.05053551744715634,7.045309073897368e-08,-6.234708656789773e-10,0.0015485849513832124,-0.163141993219713,0.2677551276281999,9.799997532102898
1727706467.99425,3.558740645796872e-08,6.101346308732579e-07,0.9987265099916285,0.05045154348053049,-3.420192031268023e-08,1.3278706126194967e-08,0.006089014045485357,-0.006545379399165293,0.00029763446877494124,9.79999997220917
1727706468.005974,3.51081402506726e-08,6.094829096953406e-07,0.9987599306345296,0.049785549696037934,-3.2817072566598634e-08,4.968456221914701e-08,0.03515387331063449,-0.021792147924601633,-0.0007799527987951899,9.800000009653532
1727706468.0338945,3.465968591675635e-08,6.090198852467803e-07,0.9987861223631509,0.04925730173699222,-3.1820807839608656e-08,4.9806887772427123e-08,0.03527242416859818,-0.0177028597419623,-0.00015276857169202194,9.800000006636571
1727706468.3206823,3.421493621212606e-08,6.085709282099804e-07,0.9988120456036217,0.04872881649226396,-3.087189378357981e-08,4.957987315245902e-08,0.03527498268483087,-0.01761460819300894,-0.00013920861912125775,9.800000006384046
1727706468.3225913,3.368838250266592e-08,6.081381728406363e-07,0.9988482687912155,0.04798057870034583,-2.9798925918176813e-08,6.937807408781907e-08,0.051690054727854345,-0.03846172479204729,-0.0022304339490949563,9.800000014616836
1727706468.3578649,3.292853920478865e-08,6.075895154350965e-07,0.9988931740218238,0.04703644217238889,-2.8633161440907778e-08,6.148934409388045e-08,0.04495050454905525,-0.01703136314859929,0.0005760931676840175,9.800000002655292
1727706468.3892653,3.2404371945873195e-08,6.071894464538716e-07,0.9989245677583609,0.04636494288147147,-2.7802821401781784e-08,6.0793740516753e-08,0.044799416379707566,-0.02224305061368577,-0.0002185005937785466,9.800000005854294
1727706468.4199054,3.186188566266064e-08,6.068020366647212e-07,0.9989581944998454,0.04563469777745732,-2.6936167052447378e-08,6.592372449331914e-08,0.04920391820600613,-0.027953294217341166,-0.0008015650005606695,9.800000008022995
1727706468.4790463,3.1094320956481406e-08,6.062818299650253e-07,0.9990064988629292,0.044564730777414796,-2.6397732643082064e-08,7.6477007320337e-08,0.05886409131192551,-0.057500909456643545,-0.006289104299229433,9.800000097101053
1727706468.743966,3.044326823596522e-08,6.059284281047269e-07,0.9990459189870762,0.0436720935484024,-2.491550550815904e-08,7.864930225025615e-08,0.059650997496379705,-0.030353791891396545,-0.0005328032231702694,9.80000000629995
1727706468.746162,2.9349919109375623e-08,5.952933841121022e-07,0.999082911059647,0.042817482740416246,-7.041310633912986e-07,7.427993460235178e-08,0.05573616227025521,-0.01086686421738421,-1.9209599425771584,9.800002430175972
1727706468.7708533,2.80069712505773e-08,5.816005100339669e-07,0.99912742436904,0.041765893661562414,-6.763371895834029e-07,6.616180246783067e-08,0.05080099075904164,-0.005597607155691325,-1.9207628538021724,9.800002371627535
1727706468.8031237,2.7079078413775693e-08,5.716846548612775e-07,0.9991575197170215,0.041039624664494345,-6.562104230920954e-07,6.058880762790388e-08,0.04730834689482043,-0.0022035643633009196,-1.9206235445629807,9.80000232924923
1727706468.8682969,2.70270284379944e-08,5.816115791801575e-07,0.9991852500762659,0.04035884078725133,6.546248225956026e-07,5.584061944567541e-08,0.044506275561019396,-0.0006314508438770591,1.731329672555842,9.799997853174693
1727706468.8993332,2.697423083129002e-08,5.912427526212083e-07,0.9992109364224238,0.03971781128754398,6.351114267812236e-07,5.358757267878274e-08,0.04192466451882601,-0.0029902869180337102,1.7310907064718697,9.799997824040927
1727706469.1295707,2.6862043041424692e-08,6.025519161592385e-07,0.9992442240440365,0.03887133538055976,3.924419920974159e-07,5.628480254377072e-08,0.04845486495479905,-0.1415853146271687,1.1091445294827673,9.799994237751822
1727706469.1334496,2.6094615791158792e-08,5.966025387599709e-07,0.9992764747034997,0.03803323683029397,-6.397575974987729e-08,7.666520674832614e-08,0.06176843870840559,-0.07024294346669163,-0.16619784041273955,9.800007207890062
1727706469.1489804,2.5447512858632462e-08,5.96032673931384e-07,0.9993107501244861,0.03712175487878222,-1.6283554572002334e-08,7.626564528334204e-08,0.05955391265021669,-0.017064333499222234,-0.03134986293074981,9.800001450014282
1727706469.4410203,2.4643807243626138e-08,5.959599957258474e-07,0.9993540882617519,0.03593614161490938,-4.3636920744323184e-09,7.526605220333533e-08,0.05929706040051484,-0.025935835239063895,-0.00044117711234076295,9.800000002058793
1727706469.4439342,2.4280067752891728e-08,5.985496997373676e-07,0.9993700325158915,0.03548997194739595,1.0618097822524183e-07,3.167707292248822e-08,0.018213729041654095,0.1313078733350665,0.33801663495337547,9.799998976907707
1727706469.468689,2.4092096617850216e-08,5.985020996015354e-07,0.9993778577987245,0.03526892883649457,-9.522714593882895e-09,1.996780960956233e-08,0.014331684413509165,-0.003506055322099867,0.0013311901929513614,9.799999959960985
1727706469.5186045,2.3862907930403873e-08,5.983171818901683e-07,0.9993878718367323,0.034984019570206415,-9.470057355206722e-09,1.9600060824545946e-08,0.01424656606203066,-0.0064574785278892904,-7.0631771626641945e-06,9.80000000186426
1727706469.5523818,2.3703376153705773e-08,5.981654070567487e-07,0.9993943016323794,0.03479985437282357,-9.222427304657052e-09,1.6893859178614887e-08,0.01205136125733891,-0.0037784257092392825,8.007881285581331e-05,9.800000008489667
1727706469.5841086,2.3521655343399078e-08,5.971184204889903e-07,0.9993997432477388,0.0346432272745551,-1.9237628248760414e-07,1.4349719081593022e-08,0.007321116075122442,0.05970522570730459,-0.49969123638953816,9.79999698707275
1727706469.6157403,2.3424987312753594e-08,5.968702249068086e-07,0.9994027268066541,0.03455704922396624,-7.087301182577559e-09,8.701721921982963e-09,0.005561581872227744,-0.0011377395286682264,-0.0012109422794434476,9.800000064617661
1727706469.8484144,2.329792745760415e-08,5.953615398523893e-07,0.9994034450624809,0.03453627074381338,-1.1103828130635932e-08,-1.9796442594084037e-11,-0.001809452216413313,0.010594085315685666,-0.019320046375786017,9.80000093200075
1727706469.8799477,2.3289547556347006e-08,5.953035676069796e-07,0.9994023809977097,0.034567048698928515,-3.4634727943716963e-09,-9.026094453503713e-10,-0.00208211739726992,0.0011293008994398676,-1.6081080013249956e-05,9.80000000313137
1727706469.908308,2.336043587699108e-08,5.961144971211209e-07,0.9993970298821412,0.03472141504026288,-2.069054091194511e-09,-1.1919607828517832e-08,-0.011279060165815313,0.012180249490482057,0.009389336418829964,9.799999621125172
1727706469.9962893,2.3097337622774956e-08,5.857199456140038e-07,0.9993892293763212,0.03494521721579713,-6.846971532370722e-07,-1.1094296934018408e-08,-0.010969873468232454,0.0011110056484944417,-1.922858711490044,9.8000023910456
1727706470.027709,2.2810675486896922e-08,5.756584536341776e-07,0.9993836204163968,0.03510525947893345,-6.642974472219102e-07,-1.035679126440393e-08,-0.010531007533241446,0.00038529857147212045,-1.9226695606870754,9.800002348048988
1727706470.0562432,2.252765878863993e-08,5.658969049581067e-07,0.9993782119764241,0.03525889145286398,-6.445032996025737e-07,-9.667154032370164e-09,-0.010109082372521117,-0.00028459215410824306,-1.9224807396407415,9.800002306363048
1727706470.2630315,2.2870470927159514e-08,5.728858686494035e-07,0.9993714741619901,0.035449353040104936,6.722794474835011e-07,-1.0134387812063382e-08,-0.009093511498872872,-6.975586580857361e-05,1.7296457873248787,9.799997882332702
1727706470.280587,2.3269739006296183e-08,5.821002684671989e-07,0.9993679648865077,0.03554814704397741,5.200986139979931e-07,-6.271386910317122e-09,-0.0024113438003832786,-0.08191395820085047,1.3520036014449488,9.799995680566653
1727706470.3109944,2.32503561091192e-08,5.854726409755943e-07,0.9993858285622557,0.03504234108318549,1.9843786590788147e-07,5.1459235618800254e-08,0.05277803501368029,-0.2786205698712913,0.4622354664898351,9.799999192813308
1727706470.570204,2.2516939367226614e-08,5.822797918728905e-07,0.9994266799013916,0.03385722228626531,-2.4864357357307303e-07,9.933359393164782e-08,0.09139937038868069,-0.2694385188947813,-0.7808463937465735,9.800007545646865
1727706470.5910797,2.103363626973725e-08,5.804873078275659e-07,0.9995081275400959,0.03136085108784492,1.527887515867675e-08,1.557734659118219e-07,0.12993389663943355,-0.04727314931454403,-0.03753272319522492,9.800001565258817
1727706470.6262653,1.9839948231777722e-08,5.809195099207351e-07,0.9995673900015398,0.029411440719069037,2.7128634263109133e-08,1.5598151701751886e-07,0.1300311196641073,-0.04375030241641768,-0.0023439496659779947,9.80000000192554
1727706470.6517327,1.8655185726832712e-08,5.812891316397069e-07,0.9996215815179643,0.0275080672382802,2.4980989703549676e-08,1.5050209171556903e-07,0.12483246874308943,-0.02645415862214202,-0.0038389249687869344,9.800000171620956
1727706470.706457,1.7136324433074565e-08,5.816592975497356e-07,0.9996902704849837,0.024887006596236994,-9.997647684307963e-09,1.6273428419832695e-07,0.15103814160177037,-0.41472534917147325,-0.15178997774910064,9.799999439285331
1727706470.7373865,1.5581921187587587e-08,5.822197035658065e-07,0.9997552847553866,0.022121722431496738,3.1205058169160976e-08,2.2538216055740858e-07,0.18998658779029987,-0.10431870283424378,0.0045388561426854225,9.799999331370692
1727706470.981793,1.3756818251255208e-08,5.818807407212044e-07,0.9998208434346241,0.018928313008242048,-8.4851326908909e-08,2.666514634650041e-07,0.23217623335380955,-0.30158413646734317,-0.34549639814390865,9.79999903686484
1727706471.0018082,1.0873497469850788e-08,5.827405442293285e-07,0.9998998635245804,0.014151428309031877,3.5367116628290155e-08,2.8728699685239846e-07,0.24068676441456865,-0.08744025108949839,0.017046759958477212,9.799998839902491
1727706471.0342355,8.666646613033313e-09,5.831472472672095e-07,0.999944468984854,0.01053845084716698,2.5170699474308263e-08,2.8794825232894037e-07,0.24090709126767587,-0.07984226785232017,-0.007711609657341151,9.800000001422772
1727706471.109331,6.45165878259178e-09,5.833844538242643e-07,0.9999762058051934,0.0068983927917212196,2.1108459751174775e-08,2.909747716573916e-07,0.24388876926462683,-0.08936624489034262,-0.01911782585229377,9.80000045348858
1727706471.1486173,4.216525433272667e-09,5.837478225198142e-07,0.9999947614441117,0.003236832401164902,2.3993534616421478e-08,2.9165329121584106e-07,0.24413333276270446,-0.08071465921710794,-0.008026045631410385,9.80000000638565
1727706471.1844578,1.1490418065166572e-09,5.828212832956001e-07,0.9999982157791891,-0.0018890309945478467,2.1299961578054713e-08,3.1178442352081235e-07,0.26227859926543073,-0.09861965234248067,-0.02474503811243424,9.800000618989563
1727706471.4072964,-1.1967865358605962e-09,5.838410385639993e-07,0.9999843484676633,-0.005594892256521211,4.0381614231504745e-08,2.8580708681588316e-07,0.23646468855041564,0.0008860503173026398,0.04915568901271901,9.799997927516493
1727706471.4117222,-3.2466740110809226e-09,5.850026120900437e-07,0.9999611421414655,-0.008815566164107835,2.3698611424865186e-08,2.541859240158385e-07,0.2121252418603397,-0.051176975902017266,0.004944189697044127,9.79999962573563
1727706471.459303,-5.828434369896618e-09,5.853714191965429e-07,0.9999148695538718,-0.013048128015954563,1.9806654355807984e-08,2.5257698181367855e-07,0.21159281437935323,-0.0699291939749212,-0.005955073997275879,9.800000003132098
1727706471.6954563,-7.71661323367237e-09,5.856192417760719e-07,0.9998715467654126,-0.016027787389346015,1.8356923343510905e-08,2.2961680990910313e-07,0.1900561323889047,-0.0043307691641442745,0.0018444638541029643,9.799999984976822
1727706471.7086673,-9.443114483448267e-09,5.858609225981767e-07,0.9998222002249673,-0.018856509140413646,1.824179846672262e-08,2.24770018985131e-07,0.1884379670718947,-0.06118936742162366,-0.004545527479351652,9.800000001469435
1727706471.7502494,-1.1734550719606106e-08,5.861632024011414e-07,0.999744048803436,-0.022623812273112665,1.7512893234341348e-08,2.2464198629038471e-07,0.18840260070865827,-0.06243225787902095,-0.004728554406886398,9.800000002285948
1727706471.780005,-1.3448409760538287e-08,5.863118925458051e-07,0.9996763942103064,-0.025438295114565856,1.551440266184461e-08,2.2333173141760848e-07,0.1871974433702593,-0.058417290971336217,-0.008523481944874626,9.800000197618603
1727706471.8237398,-1.515385339409497e-08,5.86512196363526e-07,0.9996010608782532,-0.028243921305770192,1.658194839204828e-08,2.230158393238164e-07,0.18709871409118786,-0.061867843881615966,-0.004664779868217525,9.800000002867494
1727706471.8650997,-1.6615808727160778e-08,5.873709343458253e-07,0.9995424895023977,-0.03024585391426976,5.7797141195319054e-08,1.4736381562266743e-07,0.11880565499132979,0.08835959392431378,0.13631998297204206,9.799998153780196
1727706472.0802033,-1.7959146500889766e-08,5.862724576331278e-07,0.9994725263697815,-0.03247566830201504,-1.8282383440539812e-08,1.26980826786613e-07,0.10626345832707262,-0.007921112793720663,-0.09122773845951727,9.800004206050856
1727706472.0838008,-1.8909811309903737e-08,5.864443136173944e-07,0.9994198353231016,-0.03405866648006445,1.5275964252635904e-08,1.2466967255974303e-07,0.10551170983021596,-0.03410727869216937,-0.0016384091900111485,9.800000010175333
1727706472.1139512,-1.985799254653921e-08,5.86635611069737e-07,0.9993646875357538,-0.03564016422830596,1.4915401478820784e-08,1.2464384671281868e-07,0.1054955568378784,-0.03467449714741864,-0.0014625641897769827,9.799999998857407
1727706472.1905353,-2.110313326147307e-08,5.863244279490153e-07,0.9992877685829615,-0.03773533569667986,-9.648161931157628e-08,1.234164685273321e-07,0.10283092485952963,0.0020453332408060234,-0.3035253913875432,9.799998172190111
1727706472.2212574,-2.2017899910832352e-08,5.864256413028195e-07,0.9992289009028021,-0.039263260183458326,1.4832979809526687e-08,1.201650559943917e-07,0.1018309702135996,-0.03234938116904993,-0.0021064965455533636,9.800000036919757
1727706472.2535577,-2.2794799789395107e-08,5.854925690154342e-07,0.999178219916615,-0.04053251588442186,1.289906179490588e-08,9.75940282309917e-08,0.08264481292958917,-0.011464343812160629,-0.009527551329373983,9.800000477789771
1727706472.3681877,-2.7419310719026207e-08,5.803272833585252e-07,0.9988137761288491,-0.04869333234531259,-5.055074351009177e-07,2.4097931770463203e-08,0.016884841960260154,0.10391158126423143,-1.4447806234457576,9.799991302007907
1727706472.392625,-2.7431786955041343e-08,5.798052674572567e-07,0.9988124339489843,-0.04872085578649804,2.61411799321004e-08,-3.21510955114976e-09,-0.001394509335299892,0.011000879258922257,-0.002185033413286049,9.800000157885604
1727706472.4198942,-2.7406698186922322e-08,5.802098961033635e-07,0.9988136431579624,-0.04869605981166747,2.665643373561818e-08,-4.016866605246852e-09,-0.0016860451056119098,0.000684875785461004,3.4025882194998057e-05,9.799999995037158
1727706472.4517179,-2.738068008454866e-08,5.806036000305081e-07,0.9988148784811965,-0.048670715263440745,2.5867129290278797e-08,-3.975223505900626e-09,-0.0016923088252132935,0.00046322453041665036,1.1344745383619799e-05,9.799999994855666
1727706472.468536,-2.374781221515795e-08,5.855705295449106e-07,0.9991132008421196,-0.04210477292029918,1.1375015083117853e-08,8.789971717888156e-08,0.07418347511781861,0.0003756402862420161,-0.011466034180575778,9.800000627927552
1727706472.4741971,-2.4402638339037928e-08,5.857802845077349e-07,0.9990661133366114,-0.0432076518933025,1.5998902016713143e-08,8.596042483180183e-08,0.07352183536455632,-0.02288655003209678,-0.0006632170129374707,9.799999999148968
1727706472.5071902,-2.5054954972945083e-08,5.859863525095196e-07,0.9990178636573718,-0.04430923259453329,1.554047434736625e-08,8.596077965508123e-08,0.07350760771355502,-0.023387272265261248,-0.0006988625255702458,9.799999997800732
1727706472.5379477,-2.7360802411441277e-08,5.810569778548655e-07,0.998815775130978,-0.04865231083067739,2.520582241443598e-08,-3.320905841458458e-09,-0.0011733840934309483,-8.57557143201079e-05,0.0006434886832088225,9.799999964103787
1727706472.575956,-2.730641416408014e-08,5.811826021606168e-07,0.998818962279847,-0.04858683556140525,1.5554873696717837e-08,-8.140468778742138e-09,-0.005906372420528822,0.015721621426541134,-0.023133854681615607,9.800001122887497
1727706472.759062,-2.7076970719687918e-08,5.780792646215902e-07,0.9988234970313241,-0.04849352304979776,-6.694057415543392e-07,-8.417556173655989e-09,-0.006219949802090544,-0.00045188956112030834,-1.9222193953186713,9.799988550351646
1727706472.7616265,-2.6530306960184173e-08,5.682529326553852e-07,0.9988279424603579,-0.0484018735183272,-6.49487210806475e-07,-8.053982536574105e-09,-0.006066174615292243,-0.0008315538354335037,-1.9220497533201673,9.800002316648593
1727706472.8014872,-2.582958872223556e-08,5.556049561402795e-07,0.9988336867320154,-0.04828318805775922,-6.238111852710292e-07,-7.595674754321663e-09,-0.005867106110265682,-0.0013085006822127878,-1.9218116644121535,9.800002262571278
1727706472.8060875,-2.5628580585027216e-08,5.842676700446044e-07,0.9989719062366526,-0.045333547727554824,-3.686748793846817e-07,7.843888390871e-08,0.05805440909896937,0.19146043576543048,-1.0349430906387693,9.799993661308145
1727706472.812047,-2.6137318233991905e-08,5.835767271126234e-07,0.9989331947341225,-0.04617870134530089,1.8028845965620097e-08,4.3874015960141215e-08,0.03825505184748484,-0.0020029147920766896,-0.004541740320847508,9.800000251064414
1727706472.8370676,-2.6465562808304582e-08,5.838551954906339e-07,0.9989066968153808,-0.046748380261171896,1.950217351804862e-08,4.3148976956117077e-08,0.03799162613696261,-0.011285776037280787,-0.0001603079878224142,9.799999996977961
1727706472.8689198,-2.6777291503046937e-08,5.837556510856288e-07,0.9988806808894279,-0.04730100787014052,-5.5291728599361184e-08,4.15753607562428e-08,0.034674192856460256,0.03464440976740739,-0.19961647356989942,9.79999877039125
1727706472.9203193,-2.7162068271086354e-08,5.840616754208647e-07,0.9988487424104073,-0.04797071799343272,1.898025083275828e-08,3.7767996321426474e-08,0.033409518619864416,-0.009758534806960538,-0.000172729716152544,9.799999999923148
1727706472.9496195,-2.7329939095986314e-08,5.826520072276417e-07,0.9988299770884892,-0.04835986837314349,1.5913820885875097e-08,2.8078747079150932e-08,0.025092432685072046,-0.0008545904749524214,-0.015347024921411713,9.800000723308289
1727706473.0717099,-2.5324344508848796e-08,5.464481094432097e-07,0.9988378621262595,-0.048196734150182385,-6.052210318045882e-07,-7.271276265840822e-09,-0.005722350533207232,-0.0016452105838942568,-1.921633112300148,9.800002223416357
1727706473.075561,-2.4856016382752563e-08,5.380421420234096e-07,0.998840965493119,-0.048132376343620886,-4.914850127335519e-07,-5.366512879595912e-09,-0.0015835111152122014,-0.057813623252884166,-1.6637487546449443,9.800003791614271
1727706473.114413,-2.4899903747400575e-08,5.397501054248867e-07,0.9988411121700711,-0.04812933241343509,1.0830902513740009e-07,-1.6053197368081123e-09,-9.515530537687094e-06,-0.00034691911748013733,-0.0006928015494280846,9.800000007982284
1727706473.1478047,-2.4953479051439612e-08,5.413450524164146e-07,0.998841113031311,-0.04812931453987229,1.0532388770275312e-07,-1.5323091515490762e-09,-2.035478630134887e-07,-7.397142677547661e-06,7.738995413130237e-06,9.799999979144564
1727706473.1745555,-2.500550855198585e-08,5.428928134613001e-07,0.9988411130497247,-0.04812931415770677,1.0219524989288124e-07,-1.4864231042914511e-09,-4.3512053114351e-09,-1.3563229537942218e-07,1.0649541666303947e-05,9.799999979659225
1727706473.2062342,-2.5055991804056458e-08,5.44394601824025e-07,0.9988411130501176,-0.048129314149536806,9.916036307502858e-08,-1.442437991132248e-09,-9.308357399437436e-11,1.9990671906411884e-08,1.0705954411092579e-05,9.79999998026896
1727706473.4689767,-2.5120979842333615e-08,5.463278300474708e-07,0.9988411130501254,-0.04812931414935817,9.525276343795226e-08,-1.3852872910123082e-09,-6.360516772990387e-13,2.3906665783916968e-08,1.0743388734853076e-05,9.799999981038642
1727706473.4713702,-2.516803630275671e-08,5.477275905626681e-07,0.9988411130501247,-0.04812931414935612,9.242341646734996e-08,-1.3442254997219476e-09,-8.822373364314352e-14,2.430842032514723e-08,1.0770123818091988e-05,9.799999981603616
1727706473.4865675,-2.5213696653749252e-08,5.490857749957567e-07,0.9988411130501238,-0.04812931414935473,8.967858152799822e-08,-1.304107074481626e-09,-7.76985799558345e-14,2.4690302241994284e-08,1.0796054049215158e-05,9.799999982150123
1727706473.526063,-2.5272477633765668e-08,5.50834146692297e-07,0.9988411130501231,-0.048129314149353286,8.614477147600409e-08,-1.2523285449348835e-09,-7.933538266439998e-14,2.5181482570332827e-08,1.0829445820593752e-05,9.799999982860403
1727706473.601907,-2.531503626425862e-08,5.521000631083735e-07,0.9988411130501225,-0.04812931414935245,8.358609020283028e-08,-1.2155733553723309e-09,-6.956078555986727e-14,2.5525072862819555e-08,1.0853629537926884e-05,9.799999983357909
1727706473.632188,-2.56484645760497e-08,5.595349547578293e-07,0.998841056917389,-0.04813047907344087,6.993278231302414e-07,-1.759899028814408e-09,0.0001548827310355064,0.0003085544166151415,1.7308926392305346,9.799997921796557
1727706473.8776171,-2.62712127331223e-08,5.731602100883504e-07,0.9988407321408652,-0.04813721861481607,6.716970387555501e-07,-1.3438264064461585e-09,0.00044348597922985836,0.00037846182209143867,1.7306951828176431,9.799997879827528
1727706473.8823218,-2.6702186192383718e-08,5.82514272563823e-07,0.998841413580796,-0.04812307674678784,5.495343734666722e-07,-3.230747099237341e-09,-0.003921311258904701,0.06401494869854536,1.45601710781072,9.799996163287
1727706473.9077232,-2.667250194825453e-08,5.859012098209708e-07,0.9988697118142251,-0.04753208200597886,1.9677435602741905e-07,-5.7792431898200455e-08,-0.058284446161720904,0.27105525944671316,0.5336443552546504,9.799999086304688
1727706474.186836,-2.6106682004899233e-08,5.887117120087377e-07,0.9989365799732455,-0.04610541390127626,1.8053581338519774e-07,-1.2453877364257544e-07,-0.11339130636802597,0.27033528415848274,0.5012552555076503,9.799999317097278
1727706474.1939569,-2.5040566566608985e-08,5.961434638830106e-07,0.9990389866738945,-0.04383039020179491,2.2692899707973825e-08,-1.4442156658484042e-07,-0.11951368755798483,0.061114771230786624,0.07889223706589615,9.799996564352245
1727706474.2175682,-2.3914024407753713e-08,5.961416435003534e-07,0.9991164817297182,-0.04202684779606097,-4.880191853507885e-09,-1.4709036441596814e-07,-0.1204463914282099,0.02813796275497434,-0.001672451545743372,9.799999993341826
1727706474.253245,-2.2784097725794298e-08,5.961171792518345e-07,0.9991907915966527,-0.04022141205997459,-4.832410089112291e-09,-1.4703204638381257e-07,-0.12046643873569751,0.02742561960095977,-0.001989929963724375,9.800000003256198
1727706474.2914152,-2.132933066735444e-08,5.975659464269253e-07,0.9992852224623257,-0.03780270053928342,-4.386027381692894e-09,-1.4794441788057068e-07,-0.12098384905665951,0.02844991907126262,0.006965043791255261,9.799999598751102
1727706474.340716,-2.0166937321120945e-08,5.9827122845477e-07,0.999360504207587,-0.03575727379986293,2.5975921153277906e-08,-1.758637314299007e-07,-0.14770747772633128,0.1321906813102814,0.10596973705415018,9.799998138606075
1727706474.6149788,-1.8768887352885296e-08,5.982208253048826e-07,0.9994384672148056,-0.033507465600399966,-8.509760537277225e-09,-1.8365730289292675e-07,-0.15035945841710482,0.03831424792191151,-0.0025318987330591606,9.79999999225311
1727706474.6184871,-1.6453314776262096e-08,5.947210613495252e-07,0.9995635379177589,-0.029542066024214553,-1.6596407940469533e-07,-2.621330346440318e-07,-0.22594943272818974,0.29689755092496084,-0.4265955775311883,9.800000778978296
1727706474.6446466,-1.4269054442885567e-08,5.929616205464042e-07,0.999661386345436,-0.02602138830978762,-3.1542165730273103e-09,-2.8436548805060904e-07,-0.23584935492547635,0.05805438927593195,-0.02409210747291385,9.800000796698823
1727706474.6748424,-1.2098461379892515e-08,5.930605878281839e-07,0.9997472507991128,-0.02248187090222742,3.08521374035228e-09,-2.848562472568502e-07,-0.23605972910120987,0.05046990188255891,-0.007680907806946433,9.800000010460389
1727706474.779239,-9.811046264852051e-09,5.862373974818376e-07,0.9998191505582295,-0.019017522884866467,-6.854323275841468e-07,-2.7328327838634327e-07,-0.22595864184763942,-0.0230267868757545,-1.9438662646814178,9.800002416970326
1727706474.8220153,-6.983387964320307e-09,5.729207930281051e-07,0.9998912620719735,-0.014746661716717735,-6.583520895659821e-07,-2.4267427443613275e-07,-0.2062876791790114,-0.04024759698219794,-1.9411498613204106,9.800002357007038
1727706475.044309,-5.119500579548964e-09,5.650844007140533e-07,0.9999295099901695,-0.011873291477093373,-2.760074966490839e-07,-2.1436012623489624e-07,-0.17620074020676407,-0.2783072644533509,-0.9635910118681701,9.800008352491433
1727706475.0464983,-3.7288682950201635e-09,5.75226841949451e-07,0.9999562413723819,-0.009354963393161664,6.680956463401036e-07,-1.9221346592696556e-07,-0.1638627899927684,-0.0435098798935453,1.716667325101229,9.79999789145908
1727706475.080905,-1.944671131071499e-09,5.878954784706628e-07,0.9999804698112418,-0.00624979965617023,5.654360104555687e-07,-1.809492395231694e-07,-0.1523559812824787,0.019731739538433747,1.5132990749698665,9.799996592227007
1727706475.343491,-4.6128062874046325e-10,5.908767281873823e-07,0.9999938394937892,-0.0035101245164077532,1.6676361467426197e-07,-2.2702455501000445e-07,-0.19910809233282378,0.263785325964324,0.46447177244480253,9.79999915178647
1727706475.3460436,1.385897818138675e-09,5.95148553981149e-07,0.9999999577753399,-0.0002906010396168668,1.5194113004004993e-07,-2.675484736809354e-07,-0.23077516305848733,0.2685795222915863,0.44381273221576184,9.79999932462412
1727706475.3706622,4.498739861903404e-09,5.979988369636558e-07,0.9999869561038346,0.005107604314149805,1.381241261149387e-07,-3.4522433970444107e-07,-0.29302233639609127,0.2750655719120442,0.4132458874436135,9.79999945645205
