timestamp,orientation_x,orientation_y,orientation_z,orientation_w,angular_velocity_x,angular_velocity_y,angular_velocity_z,linear_acceleration_x,linear_acceleration_y,linear_acceleration_z
1727706073.6170883,6.099201210323276e-07,-1.2821665541867024e-09,-1.4274793669888375e-06,0.999999999998795,-3.1875779886180804e-08,3.2991956488788814e-10,1.415600012327912e-14,2.5028594179692013e-08,1.1946338721760576e-05,9.799974480893528
1727706073.6190598,6.092983776079758e-07,-1.2757310786630974e-09,-1.427479366822304e-06,0.9999999999987954,-3.062037891439017e-08,3.1692158066259544e-10,1.0417701254730159e-14,2.490909950319459e-08,1.1934488242412682e-05,9.799975486419669
1727706073.644717,6.088482015655423e-07,-1.2710710376072882e-09,-1.4274793666002594e-06,0.9999999999987956,-2.971082966071143e-08,3.0760354914043893e-10,7.865217748094353e-15,2.4824315462129677e-08,1.1925888467866818e-05,9.7999762145114
1727706073.6794267,6.084113930384487e-07,-1.2665490143766232e-09,-1.4274793665447483e-06,0.9999999999987961,-2.8828219032443134e-08,2.9857449120646947e-10,7.178222663780796e-15,2.4736198134941753e-08,1.1917542634996137e-05,9.799976920966147
1727706073.7796834,6.078490984301971e-07,-1.2607279041281985e-09,-1.4274793662116814e-06,0.9999999999987964,-2.7692005849192602e-08,2.8653400082636985e-10,1.452610432569629e-14,2.4616666760226457e-08,1.1906815440097557e-05,9.799977830371546
1727706073.804777,6.074419704361026e-07,-1.2565091750644932e-09,-1.4274793662671925e-06,0.9999999999987967,-2.686968133642758e-08,2.784397453156907e-10,7.439191075474223e-15,2.454499744144461e-08,1.1899050845944045e-05,9.799978488829849
1727706074.0108995,6.070469371029542e-07,-1.2524153681621428e-09,-1.4274793659341256e-06,0.9999999999987967,-2.6071252640629917e-08,2.7009955217233137e-10,9.989296655759312e-15,2.4464429905640078e-08,1.1891509829542592e-05,9.799979127728191
1727706074.0122094,6.066636374856871e-07,-1.2484450219924282e-09,-1.4274793658786145e-06,0.9999999999987972,-2.529686810623322e-08,2.619250596638496e-10,1.1234313115478728e-14,2.438619788516681e-08,1.1884189594414106e-05,9.799979747657366
1727706074.0368245,6.061702301860525e-07,-1.2433321350449972e-09,-1.4274793656010587e-06,0.9999999999987974,-2.429913762159202e-08,2.5172011676364526e-10,8.442798266411503e-15,2.4291039584006246e-08,1.1874754973822152e-05,9.799980545693893
1727706074.2927227,6.058129851373378e-07,-1.239634518062952e-09,-1.4274793654345252e-06,0.9999999999987976,-2.3577333390485554e-08,2.441794949396545e-10,4.570117010838338e-15,2.4224499985216198e-08,1.1867950896488012e-05,9.799981123504118
1727706074.294757,6.054663461063681e-07,-1.2360474216889839e-09,-1.4274793652679918e-06,0.9999999999987977,-2.287737670124627e-08,2.3668273108809655e-10,9.987679161715612e-15,2.4148857137491795e-08,1.1861340410919861e-05,9.799981684143761
1727706074.3338053,6.050201092336747e-07,-1.2314298436804577e-09,-1.4274793651569695e-06,0.9999999999987981,-2.197677505863321e-08,2.2709559798935225e-10,1.5295139497801687e-14,2.4053890734141064e-08,1.1852818884175229e-05,9.79998240586644
1727706074.3630688,6.046970105307355e-07,-1.2280861735640493e-09,-1.4274793651014583e-06,0.9999999999987983,-2.1323866975174212e-08,2.2067548078424025e-10,6.483395438810719e-15,2.4000556472266858e-08,1.1846650323439344e-05,9.799982928429621
1727706074.3973365,6.043835068389017e-07,-1.2248406648569536e-09,-1.4274793649349249e-06,0.9999999999987985,-2.069030750308502e-08,2.1406712818931705e-10,1.1345960325131782e-14,2.3931072903515676e-08,1.1840662801428135e-05,9.799983435470011
1727706074.4528277,6.039799441924244e-07,-1.2206624927692782e-09,-1.4274793648794137e-06,0.9999999999987987,-1.987438364543903e-08,2.0581913472248834e-10,4.337555102881801e-15,2.3860822021858295e-08,1.1832954259554918e-05,9.799984088194902
1727706074.66958,6.036877418151014e-07,-1.2176352265924878e-09,-1.4274793647128803e-06,0.9999999999987988,-1.9284685835608778e-08,1.9987631623667406e-10,4.970092609396271e-15,2.380069511160537e-08,1.1827390625832692e-05,9.799984560779562
1727706074.6711788,6.03404223482845e-07,-1.21469530393086e-09,-1.427479364601858e-06,0.9999999999987991,-1.871188394207113e-08,1.941138515696917e-10,3.151327066506388e-15,2.374847974358276e-08,1.1821990625294832e-05,9.799985019321987
1727706074.6943302,6.031291263244373e-07,-1.2118435608631414e-09,-1.4274793644908357e-06,0.9999999999987992,-1.815553910461687e-08,1.8807341731752243e-10,1.1655416155251902e-14,2.3680992062026727e-08,1.1816716117662182e-05,9.799985464283841
1727706074.7352602,6.027750114456807e-07,-1.2081744431217816e-09,-1.427479364268791e-06,0.9999999999987994,-1.743943407480933e-08,1.807355905709932e-10,2.2151424785444257e-15,2.3625988746376666e-08,1.1809961021393855e-05,9.799986037042599
1727706074.8015919,6.025186100820287e-07,-1.2055224052398361e-09,-1.427479364268791e-06,0.9999999999987996,-1.6921595537317042e-08,1.7491803674151017e-10,9.942469964126118e-15,2.3563085786408306e-08,1.1805064570660428e-05,9.79998645176638
1727706074.8341897,6.022698259573169e-07,-1.2029483921742802e-09,-1.4274793641577688e-06,0.9999999999987996,-1.6419274458131227e-08,1.6980878332373723e-10,8.9604275545133e-15,2.351313439411028e-08,1.180032742255502e-05,9.79998685415159
1727706075.036085,6.01949565238386e-07,-1.1996321407629256e-09,-1.4274793641022576e-06,0.9999999999988,-1.5772581034121604e-08,1.6334256087495381e-10,5.547994051457217e-15,2.3454347715107222e-08,1.1794210266766666e-05,9.799987372151227
1727706075.038693,6.017176806271403e-07,-1.1972321291625208e-09,-1.4274793638247019e-06,0.9999999999988001,-1.5304059373699175e-08,1.5841762417509581e-10,3.65467714090878e-15,2.341368197873768e-08,1.1789795181916282e-05,9.799987747194375
1727706075.0668511,6.014926745875191e-07,-1.1949023238360684e-09,-1.427479363880213e-06,0.9999999999988002,-1.4849805415549323e-08,1.5374133526560581e-10,6.611002104422078e-15,2.3362335712794142e-08,1.1785491877440317e-05,9.79998811113257
1727706075.331684,6.012030291781132e-07,-1.1919010442568758e-09,-1.4274793637136796e-06,0.9999999999988004,-1.42647099997763e-08,1.4786095196561713e-10,1.5425014180414594e-15,2.3314512254366486e-08,1.1779966584314778e-05,9.79998857959808
1727706075.3372955,6.009978445593222e-07,-1.4189335220553264e-09,-0.0008226902787106249,0.9999996615901148,-1.3655410736107675e-08,-8.07735211723108e-08,-0.08147116049121333,0.37123676850152665,0.05051550770528459,9.799988855844552
1727706075.3647134,6.007955117816393e-07,-2.371856429216208e-09,-0.002808676499890861,0.9999960556602,-1.3381678656706785e-08,-1.7352206794307281e-07,-0.15725401947001505,0.3456797368829452,0.04293730551974448,9.79998919430772
1727706075.3953679,6.006219941833756e-07,-3.874858512529089e-09,-0.00537193991430901,0.9999855710265004,-1.2257895121421411e-08,-2.076231521258177e-07,-0.17250557203250205,0.012734284049378054,-0.002276059125136719,9.799989559535826
1727706075.435748,6.003689195729925e-07,-5.966279232813777e-09,-0.008827990152589726,0.9999610325355209,-1.1852255049533267e-08,-2.084744031120304e-07,-0.17283678658866009,0.0006653553939034297,-0.004160606667554424,9.799989983194198
1727706075.4937482,6.001804083808692e-07,-7.534410773347776e-09,-0.011420434291093073,0.9999347847136044,-1.1512092066127168e-08,-2.0839285204598182e-07,-0.1728387213061915,0.0005948546197257662,-0.004170745440001638,9.799990280869022
1727706075.5241306,5.999973735641233e-07,-9.248970659640278e-09,-0.014423198410397464,0.9998959802635743,-1.0791426497453944e-08,-2.441012336879892e-07,-0.20345249073133603,0.025196831718898416,-0.002339018967757339,9.799990561074544
1727706075.7296226,5.99726575004819e-07,-1.1899634137840044e-08,-0.019179244487666725,0.9998160613735521,-1.1586540958761287e-08,-3.1235123975963075e-07,-0.27122348310560185,0.30846862116878726,0.026391572534042302,9.799990903290972
1727706075.7537975,5.995006145853066e-07,-1.4538114645083627e-08,-0.02390429727058424,0.9997142514597057,-1.124969465770806e-08,-3.9154461816225085e-07,-0.3370030779115665,0.309171309970422,0.01713234118808028,9.79999118436614
1727706075.7831352,5.993918310599178e-07,-1.766773081330261e-08,-0.029167468800560037,0.999574538873119,-6.285338900907871e-09,-4.2478596980996887e-07,-0.35348697796931366,0.025392473103794548,-0.012243789176112857,9.799991433373282
1727706075.8950984,5.991157109114334e-07,-2.200195046169367e-08,-0.036519581736029094,0.9993329375886026,-2.4340155803035778e-09,-4.586866197240069e-07,-0.3864052588180731,0.14429087884222805,0.008655903986792921,9.799991943766507
1727706075.9236877,5.988975849083107e-07,-2.552801265188257e-08,-0.04238897003050551,0.9991011836743031,-5.524950947792488e-09,-4.722360574710018e-07,-0.39251966620122936,0.011556706937129348,-0.020252052235078647,9.79999206644198
1727706075.9559977,6.033934406962343e-07,-2.9133158452837595e-08,-0.047602106600368066,0.9988663771730641,2.3704563900190633e-07,-4.082170166835306e-07,-0.32221371290203876,-0.36136311863985876,0.6299967971266206,9.799990526569777
1727706076.1313887,6.068704351524301e-07,-3.2123814695593744e-08,-0.052142686324119836,0.9986396448481979,1.5818785003879956e-07,-3.742760460626673e-07,-0.31340019276405756,0.19642699977390637,0.5130236899546716,9.799988238879529
1727706076.159932,6.07579428755949e-07,-3.630604949068116e-08,-0.05923519372145902,0.9982440542394484,-2.958684062846384e-08,-4.5904100359703615e-07,-0.38635433409428177,0.3323701554851149,0.008985427309740035,9.79999279903506
1727706076.1909618,6.083894604210258e-07,-4.0106124116643665e-08,-0.06555711848752105,0.9978488183163026,1.1213357259623471e-07,-5.27219133348618e-07,-0.43763346930723257,0.23713567307339875,0.37967471092265875,9.799993021205482
1727706076.4255474,6.023350642876497e-07,-4.3787065929355277e-08,-0.07218529663525675,0.9973912386567847,-5.335069585088851e-07,-5.371445673234368e-07,-0.4397860296563849,0.014842176388296276,-1.4566370786985279,9.79999810847725
1727706076.4483428,5.975002980507768e-07,-4.895379114699019e-08,-0.0814934846492606,0.9966738744240069,-1.6456937049773373e-07,-5.772873743607902e-07,-0.48673467400788395,0.2147383186997059,-0.44795279863083654,9.799994481316972
1727706076.481636,5.953358984975649e-07,-5.331520644884517e-08,-0.08916850475731902,0.996016554962309,-4.822900740126129e-08,-6.232249161704842e-07,-0.522971401161261,0.10140250069204516,-0.16262742142794204,9.799995927323636
1727706076.5103636,5.947659835040216e-07,-5.8073060770627054e-08,-0.09734569726352488,0.9952506293511805,-7.20477981258635e-09,-6.685963929915877e-07,-0.5694560533680765,0.3134089705674671,-0.03211849811161894,9.799993912847038
1727706076.5579448,5.941535240601823e-07,-6.503453712941429e-08,-0.10911435102585004,0.9940292039974732,-7.404016832636891e-09,-7.175607406767223e-07,-0.6101617122738707,0.31446967694595124,-0.0433932509258243,9.799993940274652
1727706076.5895019,5.936651971130571e-07,-7.063019184061736e-08,-0.11851069037247758,0.9929527764536847,6.8937468572190616e-09,-7.593586312713818e-07,-0.634135981186583,0.04125816974626461,-0.05022076057045462,9.799994314042806
1727706076.7923322,5.929056324211424e-07,-7.636596551010597e-08,-0.12829016133255727,0.9917366759906123,-7.558442863506424e-09,-8.001637026063835e-07,-0.6789079772988706,0.3159814266610406,-0.06423505818792148,9.799994537113317
1727706076.8042414,5.922094078459974e-07,-8.264014746246914e-08,-0.13902081239467812,0.9902894595625897,4.5391610079403226e-08,-8.775017806129926e-07,-0.7420095552355161,0.278795398540558,0.055007951394541746,9.799995594667958
1727706076.8441217,5.912536955429335e-07,-9.16351083574851e-08,-0.15393777410981146,0.9880805441368423,1.1994255094641605e-08,-9.07342092108064e-07,-0.7558894182572415,0.018512459989790196,-0.07812452123789927,9.799994908042754
1727706076.9425273,5.903284479073189e-07,-9.840765134178324e-08,-0.16513479154432364,0.9862710076957826,1.1326685801364241e-08,-9.081995080361278e-07,-0.7562044407081374,0.011688881236402002,-0.07998726965261124,9.799995083013801
1727706076.9772549,5.893205126369049e-07,-1.0517024388640438e-07,-0.17631150353258163,0.9843344216889511,1.0938713703464788e-08,-9.083883404244688e-07,-0.7562233880903411,0.011277740127163946,-0.08005749548077297,9.799995232256643
1727706077.0110745,5.875216819799806e-07,-1.1428773563343026e-07,-0.19182362013383336,0.9814294160857379,-9.018284232318697e-09,-9.728155541065558e-07,-0.8219676008161936,0.31963041368393885,-0.11483601555572277,9.799995468238581
1727706077.1924958,5.858779872591752e-07,-1.2171586656651739e-07,-0.20455255651482662,0.9788555826182381,-8.572774052177502e-09,-1.0514352460770137e-06,-0.8876756931618779,0.31997657960990566,-0.14137629862850074,9.799995638667482
1727706077.2057755,5.850776268718638e-07,-1.2990901086817707e-07,-0.2180366486903429,0.9759405821193853,4.380929981199878e-08,-1.1127876965133085e-06,-0.9287675365290242,0.09918079175219793,-0.04369343402111111,9.799994202259874
1727706077.2705784,5.829353213686644e-07,-1.4094835098628593e-07,-0.23618949400511519,0.9717070149593693,1.9671659293018342e-08,-1.1220478371707062e-06,-0.9325275711556871,0.01902412835298981,-0.1212596495674652,9.79999591346454
1727706077.5969687,5.872105612132721e-07,-1.507335654438264e-07,-0.24965008769763775,0.9683361160837668,6.404351110505198e-07,-1.1170411349455776e-06,-0.9176336331972964,-0.08593334292072478,1.6095459924410067,9.799993821342168
1727706077.6026013,-5.930623458061109e-07,1.6099070404933723e-07,0.26269050909013997,-0.9648801461495544,3.9687707363116937e-07,-1.1041496787708903e-06,-0.8847466164945057,-0.18753117544112688,0.9793003086352566,9.799990250913503
1727706077.6318452,-5.950876017841521e-07,1.6999208894244928e-07,0.2749412531463238,-0.9614610274566234,1.5439779194025839e-07,-1.0472074301904928e-06,-0.8337073568393888,-0.06445475592725841,0.3746241984342721,9.799991661881506
1727706077.6765614,-5.918177167035304e-07,1.7987825620390144e-07,0.2907127574060639,-0.9568103744634984,-9.676452469311692e-09,-1.0211200462861412e-06,-0.8159783156733349,0.03463434424622609,-0.05558093474939019,9.79999704674127
1727706077.753093,-5.889059361464502e-07,1.8699709041912064e-07,0.30230591514462013,-0.9532109596874093,-4.962715751538568e-08,-1.0066628885317909e-06,-0.8061787982573276,0.05692040042834694,-0.1610477114055914,9.799996550744007
1727706077.7912636,-5.882353159947295e-07,1.9463263852483755e-07,0.31346783095159325,-0.9495988200067013,-1.776610180479488e-08,-9.734266427108516e-07,-0.7765843796752177,0.04089444058076906,-0.055208961947609575,9.79999504171799
1727706078.0177794,-5.864803324946888e-07,2.0425111025601449e-07,0.32771304685205344,-0.9447773065239016,1.0308854117772025e-07,-9.175118490335355e-07,-0.7173914619909909,-0.31584594927110704,0.25396248235387864,9.79999295081525
1727706078.022288,-5.858305393088961e-07,2.1097125020854337e-07,0.3371696753678583,-0.9414438963697971,6.164164444740989e-09,-8.263489230183037e-07,-0.6514720328499066,-0.07546005827492172,0.05459390311494306,9.799993667709357
1727706078.0536401,-5.831097610684702e-07,2.1650765797472787e-07,0.3462187751967789,-0.9381538038620614,-5.8739069814952375e-08,-8.031792344690888e-07,-0.6386899542840101,0.057104439001360474,-0.10329263060091766,9.799996698635136
1727706078.1469135,-5.792311664050542e-07,2.2360282130150853e-07,0.3580323196159542,-0.9337091935447748,-5.663432930806676e-08,-7.86136338734855e-07,-0.6265425524596664,0.053803573466347135,-0.09968236122582463,9.79999710361641
1727706078.17733,-5.763319905368638e-07,2.2879501461088863e-07,0.36670637271697654,-0.930336732698636,-5.510274650523875e-08,-7.733874344357111e-07,-0.6173872541079617,0.05137925254772767,-0.09700682422829839,9.79999718980948
1727706078.2146575,-5.719824207656017e-07,2.3304988977085288e-07,0.3746326378740731,-0.9271733314969386,-7.6702131613379e-08,-6.957481744123236e-07,-0.5537559922016629,-0.07800753477677957,-0.1688456270411657,9.799999670480245
1727706078.3950424,-5.66337453604937e-07,2.3628834796128977e-07,0.3821826034880234,-0.9240868236214277,-7.076523590259974e-07,-6.714796276513264e-07,-0.538029140344142,-0.013893413623142569,-1.9096229507129805,9.79998653668499
1727706078.4086497,-5.545674267565512e-07,2.3840702875948372e-07,0.39198489196117536,-0.9199716541686604,-2.7928189091069406e-07,-6.481794731809698e-07,-0.54040123756616,0.1743634501720491,-0.7569579894575303,9.799999400813963
1727706078.4480753,-5.496733836805652e-07,2.4171785470276325e-07,0.3997464069452163,-0.916625774312521,-1.6870393816405505e-07,-6.851415789668837e-07,-0.5775576914579871,0.23629394815134827,-0.4702967997811801,9.79999850016512
1727706078.7093585,-5.46035769136219e-07,2.459437777932611e-07,0.4078442353231469,-0.9130515208427827,-1.2789495444904047e-08,-7.073555882025869e-07,-0.5705026673798497,-0.4914518720473067,-0.15389033096086527,9.800000428428218
1727706078.7297575,-5.43277742970293e-07,2.5149155412102577e-07,0.4165585642838874,-0.9091088837545193,-1.196920032712074e-08,-5.2909029400587e-07,-0.4228688021866215,-0.4997938032978729,-0.11812516257114855,9.799997741788221
1727706078.75875,-5.416809164253889e-07,2.5457249274615225e-07,0.4213123024814154,-0.9069156210902147,-1.122378066622733e-08,-3.9549733567081244e-07,-0.31209216131740203,-0.5050703594851497,-0.09799802846144157,9.79999778911221
1727706078.7897105,-5.405100131098934e-07,2.5673376760064663e-07,0.42482255996952345,-0.9052766386804547,-9.900438494992512e-09,-2.969557875388596e-07,-0.2614321569777928,0.3331990910281464,0.029892955411658432,9.799997786845603
1727706078.8344488,-5.388678772394042e-07,2.597785184777533e-07,0.4305462399422171,-0.9025685210948036,-9.942417467965614e-09,-4.017954124497044e-07,-0.34957478232528066,0.3195161497000981,0.015115528920711845,9.799997805313026
1727706078.8702374,-5.373206542400351e-07,2.626854676854913e-07,0.4358668586045225,-0.9000111563585573,-9.920767118793712e-09,-4.812349731499994e-07,-0.4155478780581045,0.32238368588362265,0.003396893718475407,9.799997883987178
1727706079.0792038,-5.34143495988375e-07,2.6546435977348034e-07,0.44199491988119494,-0.8970175532278397,-3.1005812730987403e-07,-5.524558264612642e-07,-0.46694733369539093,0.12380719752423411,-0.8686867364922718,9.799993044016935
1727706079.0833757,-5.295175318837071e-07,2.678918618188368e-07,0.4485561476515729,-0.8937546544794204,-1.497951641053816e-07,-5.855605876885299e-07,-0.5011966987422082,0.19184835101888595,-0.4421311655814269,9.79999959758772
1727706079.1184509,-5.267471037874188e-07,2.7318933176722586e-07,0.4576178025989709,-0.889149001430096,7.857951237006116e-09,-6.029021133245978e-07,-0.5093654558685627,0.00942524039881029,-0.03735307829817918,9.79999816845799
1727706079.1492002,-5.247873980080505e-07,2.7725922297907254e-07,0.4643999918384285,-0.8856255684995298,8.171224971498132e-09,-6.035060693554882e-07,-0.5095503124742908,0.005391069868835508,-0.03633239699048534,9.799998189121732
1727706079.1802988,-5.227924215222741e-07,2.813147841198052e-07,0.47115554769344636,-0.8820501402286246,7.902632908350221e-09,-6.037215049214896e-07,-0.5095614290730947,0.005149498250201138,-0.03634234055611077,9.799998243704174
1727706079.220883,-5.198738608547171e-07,2.8678799730759576e-07,0.4806969100830513,-0.8768868117586525,-1.3668383601603113e-09,-6.67853468504303e-07,-0.5753271410023182,0.31331896322655356,-0.03376772776339833,9.799998311135788
1727706079.4020755,-5.173032965689162e-07,2.914098555878219e-07,0.4888200892834132,-0.8723846171916396,-1.4517539368116595e-09,-7.463541346177946e-07,-0.64107787384674,0.31423519929968585,-0.05256745695141754,9.799998384836789
1727706079.4323344,-5.148529878994154e-07,2.9677729211693836e-07,0.4976726045704434,-0.8673649627807881,4.219818812638907e-08,-8.146532686049836e-07,-0.6905269413737927,0.13015624838027962,0.027674377408833824,9.799997977162413
1727706079.4811175,-5.109938398781761e-07,3.0407442933961587e-07,0.5096849415791969,-0.8603611220453055,1.3934569188814123e-08,-8.275526146009877e-07,-0.6960080523189944,0.012415262815471626,-0.06715404727354378,9.799998509117865
1727706079.720874,-5.07916387943625e-07,3.0946180542517126e-07,0.5187342787419663,-0.8549355227487615,-3.575520673913651e-09,-8.398255124648447e-07,-0.7180393666521516,0.31737839377699817,-0.07716788677949787,9.79999826413909
1727706079.7245107,-5.044324082319618e-07,3.1505064555102094e-07,0.5284704225086463,-0.8489517138996652,-3.5186329644517465e-09,-9.183330406616583e-07,-0.783780331106177,0.31812750761330544,-0.1004491897899082,9.799998647672583
1727706079.7596781,-5.011062570969533e-07,3.2143577054303293e-07,0.5388984377073,-0.8423707460710379,6.939258479232671e-08,-9.881854274082107e-07,-0.8356700501234109,0.1626902442116509,0.06006473544277907,9.799998850619321
1727706079.7992406,-4.959412011419193e-07,3.3002062412897736e-07,0.5530896111855579,-0.8331217690099408,-5.480274627941835e-09,-1.0161938691672613e-06,-0.8641436064361816,0.32208836298674537,-0.13166638157927235,9.79999830070697
1727706079.8554068,-4.919479828228942e-07,3.367538337712791e-07,0.5640254072751253,-0.8257574340856844,2.223605297127618e-08,-1.0510217135785367e-06,-0.8815881686390772,0.03947261415397259,-0.10241205547290864,9.799998718984552
1727706079.8888388,-4.874550822952415e-07,3.4332255042230497e-07,0.575172699774759,-0.8180320075849473,-6.497510972523769e-09,-1.091265731918084e-06,-0.9260925894092312,0.32361539184923205,-0.15786065736646057,9.799998897256861
1727706080.1093447,-4.840480745394334e-07,3.547648586655916e-07,0.590558043359686,-0.806995165674999,6.506994788819052e-07,-1.1340565612675846e-06,-0.9439733137766884,-0.1029895453193599,1.597517235597421,9.800009157719982
1727706080.113019,-4.866499856881643e-07,3.6731641656563987e-07,0.6017488984423215,-0.7986853342982333,6.312444859051149e-07,-1.1287215971595465e-06,-0.921999967193222,-0.050707323012151986,1.6082410543751995,9.799996709085853
1727706080.1287427,-4.888639434577559e-07,3.7971372664830326e-07,0.6125694174056658,-0.7904167943932491,6.122864240635543e-07,-1.1228810246050035e-06,-0.9009161939691471,-0.0007059054953278325,1.618273276249789,9.799996706233603
1727706080.17024,-4.887062925442036e-07,3.9371455878566394e-07,0.6260952245831795,-0.7797466061187726,5.946309629982157e-07,-1.0672619231107082e-06,-0.8425084988852808,0.03843239676755754,1.6432101837136865,9.800002513631213
1727706080.2053323,-4.845662919797806e-07,4.0067269912730704e-07,0.6357174575984261,-0.7719218316022664,-2.8591507525213817e-08,-1.0479767674499482e-06,-0.8234216970305394,0.12951900594077873,-0.043185532174895305,9.799997906645201
1727706080.233592,-4.813049041263243e-07,4.0826717151358117e-07,0.6451623010348945,-0.7640455518638674,5.501560839990127e-07,-1.0399261492497382e-06,-0.8160268235600054,0.07771907671710994,1.5559442244787323,9.800008622060302
1727706080.4470859,-4.7647375158222586e-07,4.144714223324616e-07,0.6543859727705668,-0.7561606963078152,-4.353280714204586e-08,-1.0319152257425801e-06,-0.8074057608440661,0.1633276790191664,-0.05851765326637619,9.799998395405275
1727706080.4872823,-4.588522382326246e-07,4.12540941959035e-07,0.6662689051275528,-0.7457115702868979,-7.160270464854722e-07,-9.804080290985038e-07,-0.7812583428853086,0.049494516048147585,-1.985339556781227,9.800001611264497
1727706080.517961,-4.4622395630612733e-07,4.1084504743498126e-07,0.6748101364376451,-0.7379913819013328,-6.949353804285687e-07,-9.352083762182284e-07,-0.7606010979205172,-0.0021410609727735915,-1.9785053436039042,9.800001586397117
1727706080.760215,-4.35249912563706e-07,4.100242666518517e-07,0.68296014174278,-0.7304556419046432,-4.20282736835537e-07,-8.807078995453641e-07,-0.7232287902340718,-0.23417397421603184,-1.2863332901584765,9.800004536171526
1727706080.766486,-4.2638292040163543e-07,4.128894412853927e-07,0.6925925782731599,-0.7213289960348084,-5.3243681695813496e-08,-7.581308799516619e-07,-0.6329644950259513,-0.1813217008383899,-0.2620758139955289,9.800003043521208
1727706080.796041,-4.2251601009014356e-07,4.1686915905598524e-07,0.6992984872106106,-0.7148297879807466,-2.8182865897619578e-09,-7.343957502972051e-07,-0.6189182284958372,-0.04278402392062236,-0.09907579203766084,9.799999176654822
1727706080.8274777,-4.1868019148333187e-07,4.2072820508291524e-07,0.7058279846657887,-0.7083832691857416,-2.7427204176567115e-09,-7.21527534195736e-07,-0.6081043214977756,-0.043811999098833286,-0.09591854078066839,9.79999927679211
1727706080.9044256,-4.136193296158072e-07,4.257139078982063e-07,0.7142647164656079,-0.6998756423908125,-2.640978260832014e-09,-7.043543217178527e-07,-0.593666556156836,-0.045093137053595016,-0.09178529917862929,9.799999304892108
1727706080.9417465,-4.102750806180554e-07,4.297729830473665e-07,0.7203180070580194,-0.6936439783546094,9.59126584688604e-08,-6.80276757999516e-07,-0.5599881598597666,-0.3821111959635143,0.14236908573310494,9.800000545042415
1727706081.1534572,-4.069211168237135e-07,4.3329363867005155e-07,0.7259227363261941,-0.6877762578661301,4.320100347373448e-10,-6.371287458205932e-07,-0.5362579671366706,-0.04729077220416856,-0.06428772265065051,9.799999091030784
1727706081.1550279,-4.037572277613611e-07,4.364032013245949e-07,0.7306929551072057,-0.6827062365002576,2.3686741738505394e-08,-5.294361812768146e-07,-0.4307635003729155,-0.43777116780179587,-0.03232919607024894,9.799999857746274
1727706081.1809342,-4.0022935622466916e-07,4.3976506916830897e-07,0.7362271702575423,-0.6767344780445417,-3.790063929099183e-09,-4.752685669527988e-07,-0.40060381581182364,-0.047225576510080226,-0.04584507291021743,9.799999252882413
1727706081.2118952,-3.977080322721307e-07,4.421913734803013e-07,0.74023288847258,-0.6723505564980127,3.4485805172789256e-09,-4.6661181000093324e-07,-0.39482821751295166,-0.006775525094727723,-0.018695615583893318,9.799999238825857
1727706081.2518055,-3.9516353883663426e-07,4.445505307376569e-07,0.7441982133005377,-0.6679588455286251,1.7320836410942654e-09,-4.658262105565928e-07,-0.39440343460860167,0.0024925606552021126,-0.02178114900208017,9.799999359005641
1727706081.2847965,-3.9171837657330763e-07,4.476528268257603e-07,0.7493211119063157,-0.662206819091384,-4.207099892568295e-09,-4.4593186866465026e-07,-0.3573766367751164,-0.5155092702962191,-0.1052951921172756,9.799999325604748
1727706081.5078704,-3.895066359759043e-07,4.496555815370613e-07,0.7525595329919401,-0.6585242207410438,3.810967414045037e-10,-3.8077864851167605e-07,-0.3214372955264109,-0.03914382722351364,-0.01940039968645168,9.799999375533961
1727706081.5411203,-3.938108016894774e-07,4.588268389680456e-07,0.755578635543174,-0.655057955840817,6.421112870367266e-07,-3.6239165889024686e-07,-0.2989903202343786,-0.09535820527488106,1.789842174712982,9.7999971058295
1727706081.597379,-3.9890495063436697e-07,4.7010162733498346e-07,0.7592879982536387,-0.6507547431310833,5.835442327438727e-07,-3.406472252285529e-07,-0.27516612258020134,-0.054830020728835596,1.7009221082904118,9.799997208206385
1727706081.8595166,-4.025863094599129e-07,4.782549959739101e-07,0.7618544717154385,-0.6477482257226178,5.662152842744236e-07,-3.244361004574586e-07,-0.2578078240983023,-0.0398545527182658,1.7034517765146173,9.799997196508267
1727706081.861947,-4.061604975376051e-07,4.861519525100519e-07,0.7642464545726954,-0.6449243030563073,5.493941043746028e-07,-3.08363610633861e-07,-0.24126642985948227,-0.025908436406112154,1.7058225149070456,9.799997185045138
1727706081.8784647,-4.0690636766532573e-07,4.904067233588448e-07,0.7662639719244113,-0.6425258946767973,1.3842028395419692e-07,-2.5260946012481256e-07,-0.18698660100771886,-0.26274255555187953,0.5701659788912586,9.799997799587782
1727706081.918925,-4.0666846128653256e-07,4.931429950040202e-07,0.767975271303512,-0.6404794943367731,2.787346708702474e-08,-1.4293738163094527e-07,-0.10630271741093722,-0.16491210172642307,0.29833382495850563,9.799997411561103
1727706081.9947019,-4.0512570623577587e-07,4.928171353243557e-07,0.7689909999441065,-0.6392596045461938,-8.851077398291977e-08,-1.3248128823492807e-07,-0.10577012883063468,0.02894217020890799,-0.0006230922951030724,9.799999484163495
1727706082.02514,-4.0553412100348414e-07,4.948405377058886e-07,0.7699965432718989,-0.6380480572409237,5.375018760162746e-07,-1.3141056450486003e-07,-0.10337365374255685,-0.004466988518989236,1.7230090531736688,9.800009634314733
1727706082.2545495,-4.05456099999593e-07,4.963139246280393e-07,0.7709191199468775,-0.6369330502493342,-9.057338093113649e-08,-7.998694405744165e-08,-0.06420827496926171,0.000638090292195252,0.008067816778244863,9.799999054429316
1727706082.2565858,-4.0775133421710953e-07,4.998792077118422e-07,0.7713417931746003,-0.6364211169514851,1.7812268345639888e-07,-4.2812449001407174e-08,-0.02758469065030509,-0.21408996704901812,0.7401975351975205,9.799998812657485
1727706082.2708755,-4.085799270098468e-07,5.009047879706568e-07,0.7712334986238025,-0.6365523471012193,7.814394688777395e-08,3.2232205739359505e-08,0.03086673401629165,-0.2759181946905842,0.46619748508548703,9.799998847085462
1727706082.313588,-4.083609001059729e-07,4.99514822074394e-07,0.7705761959127343,-0.6373478848260523,-1.0220550041231826e-07,7.546825519886766e-08,0.053654887786508086,-0.024185643535644397,8.08052527842812e-05,9.799999557217758
1727706082.3457074,-4.093025316942708e-07,4.996541777871446e-07,0.7700258834390112,-0.6380126478633108,-9.618943197468547e-08,8.121730539437114e-08,0.057991870653796886,-0.024923579965035046,0.02053053970109246,9.799998652509311
1727706082.3763654,-4.088339499268262e-07,4.980605090375837e-07,0.769469807206102,-0.6386831889112072,-1.0089639515391774e-07,8.114852525548885e-08,0.058084352001030695,-0.021725480157895015,-0.0003742313886195773,9.799999627960846
1727706082.407128,-4.018004239180135e-07,4.88579794508472e-07,0.7689377086315696,-0.6393237053668753,-7.77725834442288e-07,7.639235434334277e-08,0.05424907048782212,-0.003534185269874833,-1.9205588245388863,9.800002206245608
1727706082.64862,-3.9269503656605095e-07,4.764183027452048e-07,0.7682825090972656,-0.640110917118923,-7.470306304550757e-07,6.800545881804925e-08,0.04942792700900423,0.0009260111680809419,-1.9203732443675143,9.800002156534214
1727706082.6829505,-3.860672342384347e-07,4.6764242429351976e-07,0.7678296335395173,-0.6406540828389394,-7.248018341347306e-07,6.226488578591165e-08,0.04602558176150658,0.003754877016027894,-1.9202415963498234,9.800002120553414
1727706082.7148383,-3.7960894164614486e-07,4.591505949281384e-07,0.767407954245957,-0.6411591313860235,-7.032313188393466e-07,5.696252489457206e-08,0.042800846573984815,0.0061789117410881575,-1.920115223844886,9.800002085667042
1727706082.9646425,-3.837971961079079e-07,4.632713220560399e-07,0.7668896074304357,-0.6417790351942251,6.158325109286455e-07,5.07138362918484e-08,0.039067070767382785,0.008751132124780034,1.7320059239979746,9.79999746415583
1727706082.9865122,-3.89912731578237e-07,4.6995634530545166e-07,0.766529459501932,-0.6422091463964861,5.974723878126308e-07,4.836640813147117e-08,0.036587931780833284,0.006131227386721164,1.73175802049491,9.799997446533066
1727706083.0238369,-3.9584531835457863e-07,4.764424196911969e-07,0.7661916756512575,-0.6426121039650081,5.796588609001641e-07,4.6144746708524795e-08,0.03430781671720715,0.003817244779546122,1.7315156024226972,9.799997429460216
1727706083.0815544,-4.0348012277939983e-07,4.847913667755896e-07,0.7657730596555783,-0.6431108933188243,5.567299165143754e-07,4.3370687790580525e-08,0.03154734967281012,0.0011472892945484038,1.73120061887905,9.799997407490357
1727706083.1170633,-4.0605460088068077e-07,4.874315274629515e-07,0.7656713958297493,-0.6432319283180219,8.669121508427757e-08,6.125392257451634e-09,-0.006109457314867594,0.22690086227943734,0.49260427589433897,9.799997315218041
1727706083.1493573,-4.0600376425535995e-07,4.874340133485085e-07,0.765764014632299,-0.6431216633684653,-7.72055216651177e-08,-1.003371618407668e-08,-0.010017881610376287,0.0067055299152900495,0.011701358359241515,9.799999226197835
1727706083.3709412,-4.091808683984951e-07,4.913174433013257e-07,0.7658587472073373,-0.6430088485593325,5.389132977476804e-07,-1.0527490865312848e-08,-0.00956375741675619,0.0013793662160649792,1.7294135619183837,9.799997409450874
1727706083.3756652,-4.1180663687915144e-07,4.946308802375566e-07,0.7660433200322619,-0.642788948126471,-8.793033378744382e-08,-1.9786074616887544e-08,-0.017332510078608192,0.01696586173238599,0.03446597908896784,9.799998258390733
1727706083.4085686,-4.10496001099421e-07,4.931315391596528e-07,0.765933021615342,-0.6429203732957762,-1.6769365743033746e-07,3.611092347202389e-08,0.03965682462463206,-0.3900999372928679,-0.25025552366015247,9.799999389886121
1727706083.4584363,-4.1122673361929593e-07,4.931485289404632e-07,0.7653212393713252,-0.6436485070026392,5.3026518039185075e-08,9.566557106576317e-08,0.07819231830024928,-0.22904087828290653,0.38150027513129064,9.799997166688426
1727706083.507645,-4.118015291262936e-07,4.920342112509706e-07,0.7642080944174071,-0.644969757761171,1.638165183152734e-07,1.2035263417793697e-07,0.09636765072885482,-0.2136703729958225,0.6851790305413457,9.800003934918472
1727706083.5444822,-4.1182561851887517e-07,4.904481818945427e-07,0.7632334187360514,-0.6461228586918042,-9.188970909349824e-08,1.3548889107135864e-07,0.1011674591500243,-0.04887750881078677,0.00011911963941539269,9.7999997038204
1727706083.743545,-4.1575612130420444e-07,4.934614264028935e-07,0.7622714157592915,-0.6472575134487886,5.275156452282929e-07,1.3139529603662868e-07,0.09711832049124133,-0.014441175505507092,1.731431749593199,9.79999743849266
1727706083.8058639,-4.1729262360269786e-07,4.927186175628956e-07,0.7606142242807412,-0.6492041295473939,-9.648206681519157e-08,1.8284989618787807e-07,0.1367269852358208,-0.09186938024841626,0.011451395529417312,9.799999034918745
1727706083.8390033,-4.175379075916698e-07,4.90641961912355e-07,0.7591231610725712,-0.6509470226698729,-9.935142476304472e-08,2.0689866385800832e-07,0.1548418361729227,-0.09052636823599655,-0.004264065624290476,9.799999783623102
1727706084.0686536,-4.17994592411673e-07,4.885772432062302e-07,0.7574316488412648,-0.6529144640251042,-8.543827828829606e-08,2.4267007519296315e-07,0.1854498945198163,-0.18759351327472434,0.012714361314558628,9.799999467684152
1727706084.0802908,-4.185318919177494e-07,4.862391541896632e-07,0.7555889280508066,-0.6550460837274132,-9.365862145980231e-08,2.503109282793018e-07,0.1881324318762742,-0.09517404337987882,-0.004830500427126825,9.799999827516245
1727706084.1217136,-4.1923882754115386e-07,4.830880983348358e-07,0.753095745388926,-0.6579109349119292,-8.987054451710828e-08,2.5186228943130163e-07,0.19006522202361134,-0.09437881144781597,-0.004868172131251856,9.799999842031992
1727706084.149316,-4.196308183925823e-07,4.805778825889382e-07,0.7512140100461694,-0.6600587179258726,-1.4778296301916657e-07,2.5173545072314905e-07,0.19095121738380585,-0.10667667418986838,-0.17440932986070726,9.799998862887005
1727706084.20898,-4.2021725686448435e-07,4.782924312674009e-07,0.7493174074056859,-0.6622110109009182,-8.408003650034274e-08,2.517982562787466e-07,0.19128236077456545,-0.09445072698242357,-0.005271539896798636,9.799999868149563
1727706084.2586482,-4.208687384176037e-07,4.749813683629834e-07,0.7466503054210898,-0.6652167476952083,-7.98427035908733e-08,2.6443994800077824e-07,0.2018807432075298,-0.1011530352682993,-0.006203978813404445,9.799999879952328
1727706084.4363208,-4.2226442914781037e-07,4.735810244273184e-07,0.7447900370689949,-0.6672988840709706,-5.290959438776808e-08,2.335128727544251e-07,0.17535369639809326,-0.008572153738838689,0.08093601941854163,9.799996504637619
1727706084.4415882,-4.2279847093416755e-07,4.7154549156421067e-07,0.7430518641548164,-0.6692338359464882,-7.754855975665927e-08,2.2616741460988282e-07,0.17316822072240154,-0.08429834301053234,-0.0034310230398810733,9.799999850651608
1727706084.4883494,-4.2338494851419005e-07,4.6896752526397265e-07,0.740948613420121,-0.6715617263293084,-7.485034590621529e-08,2.0208405902019877e-07,0.1552452461293387,-0.07335099082625632,-0.002545365705691791,9.799999863166763
1727706084.7302134,-4.236004066331108e-07,4.6699545312167804e-07,0.7395443460002197,-0.6731078370504311,-7.768675163283128e-08,1.7033952631417273e-07,0.12836203912111604,0.015070303173542481,-0.005113113647723795,9.800000487549328
1727706084.7331932,-4.2381171456227424e-07,4.653503459682655e-07,0.7382668730316224,-0.6745087280263422,-7.046259578793343e-08,1.6306615116735635e-07,0.12615848455323542,-0.060907444800668446,-0.0018309569515685545,9.799999873134393
1727706084.7648926,-4.2393117801512875e-07,4.6359208585192046e-07,0.7369485880983575,-0.6759487987262367,-6.859765873568843e-08,1.6816949189581557e-07,0.13063385706753233,-0.06814828331277438,-0.004440587298572983,9.799999956406428
1727706084.810043,-4.2448274804130293e-07,4.6166389684086275e-07,0.7352045554962962,-0.6778453079996204,-5.8758946615406824e-08,1.6315324842076606e-07,0.12647264754548196,-0.05026047601656631,0.01930311179400844,9.799998994596603
1727706084.8446443,-4.2474142728754965e-07,4.6011134177891615e-07,0.733920484825145,-0.6792353950977761,-6.395256100241138e-08,1.6172505657341983e-07,0.12612276484456234,-0.06239600965488747,-0.0019502345993272204,9.799999882272504
1727706084.8703978,-4.250188515404368e-07,4.5865480607100657e-07,0.7327087791548229,-0.6805423167952583,-6.205220160267312e-08,1.5113060393350836e-07,0.1179423376253834,-0.052345674821327175,-0.00023489746625172096,9.799999857021602
1727706085.0977583,-4.2531533818362756e-07,4.5678328126234e-07,0.7312115816357662,-0.6821507332557311,-5.8766308512144486e-08,1.2995552276531207e-07,0.1000126017652716,0.002434568617872635,0.009758638894523804,9.79999971516954
1727706085.1091008,-4.253989595723867e-07,4.554963289168884e-07,0.7302397250786932,-0.6831910010506622,-5.837018547921941e-08,1.1987340822412775e-07,0.09429836804925124,-0.04256149084408174,-0.0004568343397587804,9.799999891877407
1727706085.14382,-4.2547616871873656e-07,4.542466008182565e-07,0.7292737686296851,-0.6842220183451194,-5.66590237819518e-08,1.1926616252866639e-07,0.09417504601832959,-0.0468156877526517,-0.0011111978456792755,9.799999898180603
1727706085.1810312,-4.256066100492127e-07,4.526044093455114e-07,0.7279599566214355,-0.6856196478772555,-5.444953635692082e-08,1.2338521327493575e-07,0.098071170285982,-0.060307287035734014,-0.0029755773069172244,9.799999911044056
1727706085.2323363,-4.2574536960732627e-07,4.5137307866648157e-07,0.7269476265774528,-0.6866929067734885,-5.278271125416887e-08,1.2415532962467467e-07,0.09839169848050414,-0.04925006533590463,-0.0012689990952624197,9.7999999055299
1727706085.2669787,-4.188065047156283e-07,4.426818993505361e-07,0.7259760719001664,-0.6877199597423597,-7.313557625251614e-07,1.166146574023974e-07,0.09221344681287336,-0.01824200658509858,-1.9207409897695544,9.800002383035649
1727706085.4941812,-4.165535210766321e-07,4.390787581075321e-07,0.7250646070637533,-0.6886808517616259,6.079584257649102e-07,1.0548675321730572e-07,0.08641271271648662,-0.0068485635323021635,1.7316769826865988,9.80002392115466
1727706085.5068722,-4.2547049311809106e-07,4.4696194143699327e-07,0.7239335231217983,-0.6898697370519161,5.839698515456044e-07,9.911770303369056e-08,0.07952180921140632,-0.01234635213549696,1.7314021335997247,9.799997649997529
1727706085.538953,-4.2662869318225896e-07,4.472238026251068e-07,0.7232710837142224,-0.6905642182031098,-4.227970724803342e-08,7.785359177829916e-08,0.06212853124676794,-0.01749019630748104,0.017628196946958673,9.799999182512659
1727706085.8110032,-4.26573935286954e-07,4.463258042680336e-07,0.7226670039293084,-0.6911963551925429,-4.336619441894535e-08,7.051448185061925e-08,0.051247199560253254,0.11658856186305694,0.029259728041950393,9.799999960653619
1727706085.819151,-4.2636784470643325e-07,4.4525745068881166e-07,0.7220175728950509,-0.6918747172937886,-4.5021957126298516e-08,5.712180484596529e-08,0.046529136790182425,-0.02221281671980802,-0.00010750909722038732,9.799999921461673
1727706085.8491478,-4.262165881835405e-07,4.444851790729329e-07,0.7215347709918751,-0.692378201743327,-4.368651197598854e-08,5.698216600943019e-08,0.046501232059380976,-0.023175397349823303,-0.00025275542465626855,9.799999924364396
1727706085.8783672,-4.260780815267263e-07,4.4372750224352103e-07,0.721051654489379,-0.6928813113064535,-4.238912492923729e-08,5.6929301191429e-08,0.046500629834557404,-0.02319617113692239,-0.0002559246230877675,9.799999926617799
1727706085.918596,-4.2587051193254234e-07,4.427354268433829e-07,0.7204486592381253,-0.6935082763757113,-4.06795427475663e-08,5.269741466767651e-08,0.04319508780387005,-0.020843550035212464,-0.00015754733684869446,9.799999931035032
1727706085.9709072,-4.2579334060477654e-07,4.4206033073301554e-07,0.7199620904360801,-0.6940133920426413,-3.9362360028710434e-08,5.752841040541053e-08,0.047181310936836716,-0.026617595105467073,-0.0001567002593471317,9.799999907880151
1727706086.200283,-4.257070470023034e-07,4.41351676860653e-07,0.7194500523549574,-0.6945441830193907,-3.604652237427289e-08,6.101299125335766e-08,0.052995002958666215,-0.10382813146970658,-0.004834694727902833,9.799999977878981
1727706086.2053425,-4.2565610571973943e-07,4.406190832125544e-07,0.718924239562402,-0.6950884388113836,-3.7244225987555496e-08,6.146316476501158e-08,0.05014759870302941,-0.022825906385126146,4.581565554477037e-05,9.799999933560624
1727706086.2442262,-4.2558998132397975e-07,4.396714476531186e-07,0.7182275279769902,-0.6958083199097919,-3.5788309849884337e-08,6.120165449580614e-08,0.050085168637611005,-0.0249794316436602,-0.00029850038101506465,9.79999993825844
1727706086.2756658,-4.255526100469554e-07,4.389745970197134e-07,0.7177083533762307,-0.6963438227582734,-3.472231905351744e-08,6.053603269615509e-08,0.049002069617338495,-0.00983442431077832,0.001789804510417196,9.799999938989709
1727706086.3824623,-4.255160242991859e-07,4.3829826315952447e-07,0.7172001426077343,-0.6968672437724936,-3.369699298679385e-08,5.923396146042557e-08,0.04859331857500639,-0.02393410922463589,-0.0002345055837062299,9.799999941699246
1727706086.4190862,-4.2547350952046493e-07,4.3742288844971933e-07,0.7165410431187954,-0.6975449329798447,-3.237262864366651e-08,5.674364760716318e-08,0.04661746724197888,-0.021745418337348273,-2.907139538203105e-05,9.799999943189738
1727706086.6215663,-4.250719598843703e-07,4.364030016720131e-07,0.7160644011969592,-0.6980342207500065,-1.383284209948839e-07,5.492362395867664e-08,0.0434512733249886,0.020154619524555113,-0.29061219270500743,9.799998195563084
1727706086.626239,-4.249762491221933e-07,4.357530530028969e-07,0.7156203169277175,-0.6984894859623176,-2.9576418824145684e-08,5.110193688509232e-08,0.0422736411520151,-0.020048589642593477,-0.000902436085497355,9.799999984036972
1727706086.6653337,-4.2531284144409813e-07,4.3535055209097524e-07,0.7150006469301119,-0.6991237908190159,-2.7336737515950586e-08,5.4838531305486884e-08,0.04536248271475895,-0.02500047168489739,0.004415995230507665,9.799999724712388
1727706086.9235623,-4.250732293061758e-07,4.3451519597029857e-07,0.7145554201928239,-0.6995788386398543,-9.574192227360335e-08,5.0069435147143857e-08,0.03648832635827341,0.1022542632747286,-0.17002082028768267,9.799998838368928
1727706086.9261832,-4.249694761533131e-07,4.3397233832742913e-07,0.7142040505269928,-0.6999375502217807,-2.690709764087027e-08,3.9614476205161246e-08,0.03311608236149117,-0.013845066796340412,-0.0002559089089232512,9.799999974288172
1727706086.9676106,-4.2507553364249407e-07,4.336535984135573e-07,0.7138326517671773,-0.7003163180097055,-2.0381593863285557e-08,4.369995447251624e-08,0.03693786811969671,-0.029755782087035713,0.014754825890840857,9.799999211688846
1727706087.0054297,-4.251685575372388e-07,4.331199825661983e-07,0.7133162009047878,-0.70084234855379,1.3592816307377325e-08,4.3811119729396524e-08,0.035768651148413044,0.0023986055682075056,0.1107065665070658,9.80000059084576
1727706087.0363739,-4.25148719231108e-07,4.3265206860789224e-07,0.7129453609568724,-0.7012195892084782,-2.4952234999439072e-08,4.213984969357902e-08,0.03520617407441424,-0.017140959347801688,0.00022872112068307945,9.799999943087407
1727706087.0652933,-4.2511921054674487e-07,4.321787956150546e-07,0.7125687521729825,-0.7016022900662962,-2.221548875290232e-08,4.309436184444799e-08,0.0369941262770477,-0.04275537858387605,0.0022313459185025353,9.79999999446517
1727706087.3230472,-4.247356353718412e-07,4.31159568102263e-07,0.7120050010907062,-0.7021743931684327,-1.2777207622126732e-07,5.094577481350422e-08,0.047835387058705096,-0.1614437726535708,-0.30912174460695796,9.799998262219033
1727706087.3258154,-4.247690335071016e-07,4.305477736297713e-07,0.7114648367997678,-0.7027216988233064,-2.1735038454702263e-08,6.247886067700302e-08,0.05167405258369524,-0.028576252624328374,-0.0015740537942888432,9.7999999993287
1727706087.349392,-4.2470726972542235e-07,4.2981733928968114e-07,0.71089833970491,-0.7032947821535698,-7.025275444489944e-08,6.602206091367182e-08,0.057676337610111705,-0.10877133493531148,-0.14885536586974904,9.799999158987562
1727706087.387986,-4.2453935503653074e-07,4.286211849655043e-07,0.7100499993793441,-0.7041512610093298,-1.2594976766857387e-07,7.409950950581094e-08,0.062074519538955736,-0.06025542093645785,-0.3000512045026522,9.799998224127227
1727706087.4472284,-4.246963416404373e-07,4.279653890295819e-07,0.7093863182318316,-0.704819871672985,-1.786761218490022e-08,7.634203068845046e-08,0.06289252268168731,-0.03147439891454505,-0.001409664028390512,9.80000000233889
1727706087.4749203,-4.2412435251003345e-07,4.265724748416973e-07,0.7087091938583587,-0.7055007289438286,-2.434763756982125e-07,7.840649770560105e-08,0.06623356475971834,-0.07830136035727928,-0.6346107099227838,9.799996259862967
1727706087.7009497,-4.242770944375772e-07,4.2585704910229894e-07,0.7079960054960469,-0.7062164372211115,-1.4565808137720446e-08,8.17472759200939e-08,0.06749336710382495,-0.03357618367914847,-0.002469540162422768,9.800000046142877
1727706087.7051108,-4.2329113064862246e-07,4.237003369014687e-07,0.7070222140474803,-0.7071913382126793,-1.1354302250954882e-08,8.617367547450909e-08,0.07204850988340492,-0.051105701928755916,-0.008396536909446937,9.800000211186575
1727706087.72419,-4.236586715977511e-07,4.2313383081463396e-07,0.7062529918752094,-0.7079595408404047,-9.126560627429145e-09,8.757875500093465e-08,0.07252575974655605,-0.03458219951133742,-0.0007300683104293301,9.799999968920726
1727706088.0224264,-4.2403090128855814e-07,4.2256979472744407e-07,0.7054822966953427,-0.708727542183247,-8.849086314278442e-09,8.75682804103834e-08,0.0725360548946475,-0.03422595637420357,-0.0006615205251279563,9.799999969007429
1727706088.0257409,-4.2265619380618283e-07,4.201264380064958e-07,0.7046437829342183,-0.7095612300371257,-4.735970807783638e-09,6.90903409036781e-08,0.05779136042177719,-0.02333665099264138,-0.003411177243956098,9.800000123218819
1727706088.0483737,-4.231849138637394e-07,4.1992255577503665e-07,0.7040277519281548,-0.710172461106901,3.200390584185982e-09,6.910049502345511e-08,0.05794045867999372,-0.027189005572552077,0.019118470986976655,9.799999086143707
1727706088.0780728,-4.2351278457723755e-07,4.195167353219707e-07,0.703410106933923,-0.7107842298917805,-3.8242983420323565e-09,6.915722746396483e-08,0.05795760149682443,-0.026629387322743503,-0.00036124493746170314,9.799999968429631
1727706088.1201153,-4.2370628849489166e-07,4.1875734688375895e-07,0.7026115565971778,-0.7115736086560096,-3.2118487003439965e-09,6.667007803927003e-08,0.05596274424941328,-0.02517900900631417,-0.0007624232468952518,9.799999991525382
1727706088.1805098,-4.2281451809523577e-07,4.1718668801465324e-07,0.7020406874682387,-0.7121368359653713,-4.216147039060959e-08,6.196255676414567e-08,0.05176293619233162,-0.011087054355162437,-0.11548421063482943,9.800005235505486
1727706088.4196022,-4.231149538490395e-07,4.168424044874721e-07,0.7014908095402715,-0.7126784998371858,3.757713061880173e-10,6.085853858159161e-08,0.051420828743137345,-0.022766109202106078,-0.000610250794246498,9.799999987447185
1727706088.421726,-4.2146779077628077e-07,4.146247060669908e-07,0.7009995211630717,-0.7131617427546112,-3.6427006933101926e-09,5.328970440341831e-08,0.045291878564744,-0.014917415378043093,-0.025995580679333583,9.800001161588716
1727706088.4457204,-4.2166825073655115e-07,4.1408417237508017e-07,0.7003709264514548,-0.7137790732300727,-6.31676512520345e-08,5.061572804844457e-08,0.040683110814774666,0.042926442310561364,-0.18271409319462473,9.799998836380844
1727706088.4780047,-4.219360962306319e-07,4.138672998694996e-07,0.6999513714774105,-0.7141905050940839,6.168263172070793e-09,4.543869373276217e-08,0.03899526593885002,-0.015476308674110617,-0.0005189792737928319,9.799999997489724
1727706088.5578432,-4.2223706264200157e-07,4.1369324786539796e-07,0.6995338492101102,-0.7145994639019381,6.171850221782764e-09,4.535717200256561e-08,0.038958910437987423,-0.016739403584139466,-0.00017502535470877644,9.799999974967308
1727706088.599655,-4.2063021943400653e-07,4.1144524794085504e-07,0.6988018850979038,-0.7153152629318557,-2.147901807530515e-07,7.351347363701385e-08,0.07330374891605067,-0.30017399987769045,-0.6601410699374547,9.800003244722316
1727706088.8138587,-4.207909889838354e-07,4.1056389342793706e-07,0.6978422567827683,-0.7162514814281274,1.0556883536116008e-08,1.0773685953403486e-07,0.09129453790568781,-0.05139461791286933,-0.009652390318603741,9.800000277369852
1727706088.8167067,-4.190291739886153e-07,4.07728550355412e-07,0.6969032618655399,-0.7171651438830731,-1.0381890035476137e-08,1.0214107944002505e-07,0.08632961354088609,-0.026544718617356338,-0.08186760158276898,9.80000366400432
1727706088.8454974,-4.2003991325159335e-07,4.07268114100494e-07,0.6956322296218757,-0.718398079835237,1.98901262856702e-08,1.0716804453721717e-07,0.09150338202927599,-0.05162095182869308,-2.5761631746346265e-05,9.799999832126122
1727706089.1358736,-4.208070113130152e-07,4.068708728746472e-07,0.6946412899321477,-0.7193562944195728,1.8147060518146104e-08,1.0851380299134106e-07,0.09194385871329164,-0.03624980135361169,-0.001135344857365598,9.799999977156975
1727706089.139547,-4.2019757073498525e-07,4.053770498303938e-07,0.6940084549310488,-0.7199668495728656,4.831727671861583e-09,6.225068901138717e-08,0.05149367316235394,0.03232766757503606,-0.03709786672038888,9.800001949654117
1727706089.1495395,-4.208769020821412e-07,4.0542630192614786e-07,0.6934636039611394,-0.7204916585088871,6.609305068161855e-08,5.826191465545416e-08,0.05073405050169948,-0.02734895495054869,0.12552984866682246,9.800000738330624
1727706089.1925652,-4.215867753903267e-07,4.052981621900386e-07,0.6927291786661793,-0.7211978126867403,1.8988744931415666e-08,5.908859724625789e-08,0.050962587492972465,-0.01956332119497674,-0.00027875096419759636,9.799999976045566
1727706089.225673,-4.225334672308546e-07,4.0557198818222406e-07,0.6921191881714954,-0.7217832287913643,3.215652036808528e-08,6.877359550737553e-08,0.060052638475242996,-0.05002034511840514,0.03668502425897345,9.799998142689883
1727706089.2647603,-4.2224817317384584e-07,4.045599995210889e-07,0.6914990360001713,-0.7223773828204285,-2.1749802736504044e-07,6.595125388572443e-08,0.050410235487490955,0.12052238300842845,-0.6297934288241959,9.799996105737124
1727706089.5121863,-4.227608973207224e-07,4.042910406528305e-07,0.6908224521957623,-0.7230244391041644,1.855776044990141e-08,5.374575428626309e-08,0.046452039028193746,-0.016756210558881046,-0.00039541990558969713,9.799999991050031
1727706089.5149403,-4.1578478413371715e-07,3.9707942467496544e-07,0.6903409827382105,-0.7234841584663143,-6.616518157993722e-07,5.070327087014468e-08,0.04336093391270402,-0.003284980697534202,-1.9208012689443688,9.80000232454957
1727706089.5377648,-4.0899463526506217e-07,3.901050507414568e-07,0.6898916699047943,-0.7239126216579281,-6.419395524436649e-07,4.62192573375413e-08,0.040421874725104986,-0.000530084889523939,-1.9206686866979128,9.800002283604448
1727706089.5794182,-4.002239202530297e-07,3.8116002326859027e-07,0.6893399020970045,-0.7244380576533697,-6.165628761777627e-07,4.0764870085771496e-08,0.03673334566189641,0.002581878975124498,-1.9204977192418948,9.800002230916549
1727706089.6414592,-4.0801970987164235e-07,3.8820181651180035e-07,0.6889574822849112,-0.7248017574504901,6.93103742667147e-07,3.705921648853765e-08,0.03442995564308819,0.004635558985937961,1.7315905177050137,9.79999789663017
1727706089.6722836,-4.1558463725388664e-07,3.9503268373934335e-07,0.6885985768428083,-0.725142744547396,6.724622258151621e-07,3.544656137179678e-08,0.03231064204891939,0.0025340974680126303,1.731352408545276,9.79999786615437
1727706089.706494,-4.2264106277736064e-07,4.013869539100722e-07,0.6882740709464195,-0.7254507586752552,5.737681790918053e-07,3.2221543251917054e-08,0.026847910143232026,0.049546898205916304,1.5197963226816364,9.799996537759366
1727706089.8864834,-4.1847824688624027e-07,3.970622486913558e-07,0.6879065503339695,-0.7257992683981467,-6.007730355907808e-08,2.9975318056825387e-08,0.027784093491445394,-0.029289895139156277,-0.2636221487217991,9.800010674380623
1727706089.9101357,-4.188899133315109e-07,3.971363400265635e-07,0.6875874164250926,-0.7261016077475198,3.1739547104214946e-08,3.3341962053252025e-08,0.030062659908941042,-0.014678755910905374,-0.0077146435609471205,9.800000289569002
1727706089.9477916,-4.194224138558649e-07,3.9730278022547447e-07,0.6872584309923766,-0.726413001693639,3.3213973688249895e-08,3.385307421501872e-08,0.03021542047344005,-0.009285070260099315,-0.00014168486587486453,9.799999982054878
1727706090.203439,-4.1992721147551304e-07,3.9737410862976576e-07,0.686913501322181,-0.7267391840963082,2.81260764420759e-08,2.247202186774716e-08,0.01721426552978544,0.07361462568362358,-0.0006399163387307903,9.800000010188281
1727706090.222443,-4.203522794610269e-07,3.9761206630506045e-07,0.6867469552403155,-0.7268965672417371,3.13848288737272e-08,1.6103952999278366e-08,0.015045484408513513,-0.0028535486244576336,0.00020025181230793842,9.799999982763813
1727706090.252882,-4.2076328246555224e-07,3.978489788943606e-07,0.686583344506269,-0.7270511062134838,3.046160824221884e-08,1.6021216768806223e-08,0.014998854405638768,-0.0044978439400413794,-1.022180938367785e-05,9.799999982736518
1727706090.2937574,-4.211332438159578e-07,3.97999586772384e-07,0.686375725689371,-0.7272471128743334,2.4132757656909686e-08,1.4406977872589786e-08,0.013378515911980506,0.0007754056394663794,-0.014632424204383465,9.80000067096588
1727706090.3493614,-4.208638464777899e-07,3.9761178034107764e-07,0.686234052328057,-0.7273807980865856,-1.5005238844514507e-07,1.3828573561021655e-08,0.01242357939345741,0.007174431510955262,-0.49431200013204424,9.799997031973701
1727706090.3889108,-4.211466826004238e-07,3.977589949907521e-07,0.6861014979336758,-0.7275058312706714,2.9515670211150254e-08,1.2742005405797667e-08,0.012115364749991246,-0.0033404288400904975,-0.0013587205635281676,9.800000046292759
1727706090.605838,-4.192212872092368e-07,3.9584347159597743e-07,0.6860260730231919,-0.727576956157935,-4.979795227114658e-08,3.794979142960592e-09,0.003102072405453339,0.03213591027954528,-0.22938646265703233,9.800009576986238
1727706090.6315818,-4.1967551046171435e-07,3.962728844137475e-07,0.6859931641968838,-0.7276079842022172,3.4195966502060515e-08,1.0368079393195449e-09,0.0021781805802479257,-0.0004068777454795617,-5.217575316942401e-05,9.799999987784968
1727706090.6612623,-4.200395748736676e-07,3.966202682366536e-07,0.6859694438155475,-0.7276303471894604,3.32129430882708e-08,1.0672216108737491e-09,0.002172755855973761,-0.0005986538186489009,1.1536341331539399e-05,9.799999984232098
1727706090.747715,-4.2039323393642345e-07,3.9695694066111074e-07,0.6859457301417309,-0.7276527023931082,3.2226314021513235e-08,1.1116343273961503e-09,0.0021726392855480193,-0.0006027753029467787,1.1192278152931383e-05,9.799999984686368
1727706090.7969508,-4.208491170188723e-07,3.9738966480648944e-07,0.6859141109909008,-0.7276825079272053,3.095624265743555e-08,1.1696891400112652e-09,0.0021726367406897057,-0.000602864767122538,1.119165284662677e-05,9.799999985284254
1727706090.8259435,-4.2063795874519957e-07,3.971652293185232e-07,0.6858516869531974,-0.7277413438187489,2.8890400252212462e-08,5.747456099219308e-09,0.006142152260171039,-0.004802611293232417,-0.007814629601742645,9.800000318860917
1727706091.0031526,-4.1598261839001835e-07,3.927199017037522e-07,0.6857859664906452,-0.7278032757305811,-6.558030607440653e-07,6.359861892236717e-09,0.0058362686933361675,-0.0006109614004508785,-1.9217226958902738,9.800002321202845
1727706091.0343833,-4.0671012553989096e-07,3.8390973607723463e-07,0.6857074182699111,-0.7278772812289859,-6.298787779879797e-07,5.388219045987436e-09,0.005138439684585619,-0.00019549998800466828,-1.9215134523867137,9.800002267495378
1727706091.0647116,-3.999932560923412e-07,3.775355503454798e-07,0.6856548977828577,-0.7279267553442973,-6.111079165150014e-07,4.730459080615445e-09,0.004649301093972741,4.453531590208169e-05,-1.9213559975458958,9.800002228215062
1727706091.2965424,-3.93473550531321e-07,3.713545249985343e-07,0.6856075081474875,-0.727971390077591,-5.928952747799684e-07,4.128685789561122e-09,0.004188461180218121,0.00022917413827713604,-1.9211980552454004,9.800002190118635
1727706091.3093333,-3.8919767488009926e-07,3.672950940545924e-07,0.6855746893093866,-0.728002297646135,-1.1173184914555455e-08,1.89084363944404e-09,0.0010788779788224283,0.03914591795019627,-0.35230198756082903,9.80001161113971
1727706091.348484,-3.908015526002693e-07,3.688330418639112e-07,0.6855731918607695,-0.7280037078212911,1.1464678986312216e-07,-1.20485773372418e-09,6.384928813261735e-06,0.0002326845067726075,-9.704409400693571e-05,9.799999976596988
1727706091.3797452,-3.9201683746627396e-07,3.7000215796476703e-07,0.6855731831248854,-0.7280037160480171,1.1129064067158895e-07,-1.1863997582714958e-09,1.3645261523419849e-07,4.985785902313868e-06,1.0915811142676425e-05,9.79999997125397
1727706091.4092712,-3.931960338357489e-07,3.71136586190008e-07,0.685573182938175,-0.7280037162238441,1.0798453388639242e-07,-1.151357706972633e-09,2.9164585779653995e-09,1.1882840311116487e-07,1.0639046211332852e-05,9.79999997209209
1727706091.4629433,-3.9471399649022424e-07,3.725969223932171e-07,0.6855731829341213,-0.7280037162276599,1.0373000683681201e-07,-1.105824093489621e-09,1.7255617371992114e-11,1.3586021531145476e-08,1.0665112124426026e-05,9.799999973192135
1727706091.6962593,-4.0033213460880075e-07,3.7791861126256754e-07,0.6855727071254117,-0.7280041643043198,7.188684278294666e-07,-1.6408322666739245e-09,8.679617357614577e-05,0.0007788845250402636,1.7309555495325422,9.799997945059218
1727706091.717973,-4.080093531100572e-07,3.851814372333688e-07,0.6855708590317794,-0.7280059046780549,6.974614277528723e-07,-1.4478316990970778e-09,0.00020949838381549958,0.0008109443694270553,1.7308033215635055,9.79999791260432
1727706091.7549808,-4.178923802502401e-07,3.945285735108493e-07,0.6855664196295451,-0.728010085284535,6.699043883850554e-07,-1.198575837539597e-09,0.0003604300235635347,0.0008290268606534459,1.7305995394897524,9.799997871488523
1727706091.8328946,-4.2289887819292283e-07,3.992656008864215e-07,0.6855669857125603,-0.7280095522042659,5.8744148336235824e-08,-1.1440320014827089e-09,-0.0009825861563703007,0.019782165594991147,0.0943277366068464,9.799988098679734
1727706091.861317,-4.2317256725524956e-07,3.995572267395524e-07,0.6855829181115347,-0.7279945483266574,2.462882880165957e-08,-2.6496309939055603e-09,-0.001515739993310864,0.0007103735852443872,0.00032824463852196387,9.799999978114469
1727706091.8903809,-4.232042284588943e-07,3.9968131810130695e-07,0.6856875382467711,-0.7278960089825632,2.3430103208327087e-08,-1.297949529919483e-08,-0.010540676166268694,0.009102601529835436,-0.001425124579094764,9.800000096758724
1727706092.0910473,-4.1843427001795223e-07,3.9537506768657514e-07,0.6858413754591994,-0.7277510616329611,-6.630205064173866e-07,-1.2393346424056015e-08,-0.010337712013921538,-0.002207631144828589,-1.9222182208973415,9.800002340334368
1727706092.1053956,-4.1127865006732767e-07,3.887562228873956e-07,0.6859501572362533,-0.7276485290215593,-6.432649724938871e-07,-1.1491899686266083e-08,-0.009782950760960016,-0.002758848372369013,-1.9220215261371945,9.80000229936734
1727706092.1569345,-4.0434005744420406e-07,3.8233054476184374e-07,0.6860530696978554,-0.7275515002787362,-6.240965500626572e-07,-1.0655459239463721e-08,-0.009255629543106707,-0.003246386280417455,-1.9218256393239854,9.800002259117957
1727706092.4180784,-4.0072855088824655e-07,3.790272311381047e-07,0.6860986072628056,-0.7275085574147799,7.534434088509177e-08,-1.3248430861823971e-09,-0.00019568559917209114,-0.007145092637130839,-0.030132937423220096,9.800001292300548
1727706092.4343946,-4.016335232222022e-07,3.7989763368879644e-07,0.6860988750107171,-0.7275083049070454,8.341027622293488e-08,-7.70369790349223e-10,-4.1866313168709756e-06,-0.00015262372353728825,-9.26213660083782e-05,9.799999982861353
1727706092.4628394,-4.025183109296278e-07,3.807474137462421e-07,0.6860988807359838,-0.7275082995076574,8.096265279427295e-08,-7.362998406007804e-10,-8.94967742398092e-08,-3.2458582557500007e-06,1.0181746551163463e-05,9.799999979735531
1727706092.5043228,-4.0592660425091027e-07,3.8398588408928075e-07,0.6860987211050626,-0.7275084500524273,7.022318263627422e-07,-1.3287722094585671e-09,4.391792686870131e-05,0.0007643254596621068,1.730998352548269,9.800010360010154
1727706092.559866,-4.134242715196377e-07,3.9108309058942695e-07,0.6860973206245443,-0.7275097708151398,6.813423298766532e-07,-1.1421434933428891e-09,0.00016955141708064738,0.0008021257095768985,1.7308543474550069,9.79999789001338
1727706092.5919557,-4.199860291793329e-07,3.972987024521469e-07,0.6860629779596913,-0.7275421570416012,4.6540417917781555e-07,3.5516290429396886e-09,0.008982920938760009,-0.12126622078876838,1.1716752274215496,9.799994640106645
1727706092.8143911,-4.1817553975486064e-07,3.954592961329569e-07,0.6859197578862296,-0.7276771851177998,-6.626237843067727e-07,1.5841291272980242e-08,0.013213226573152282,0.0016918871656472839,-1.9209835669662165,9.799988328151963
1727706092.8287923,-4.1112964134518924e-07,3.886332934030736e-07,0.6858713704267305,-0.7277227928467257,-2.0447399742306214e-07,-5.4257349040216115e-09,-0.0157448871190369,0.27131802166243185,-0.6813969163278333,9.800005660795076
1727706092.8633926,-4.094162260613169e-07,3.8742339792924506e-07,0.6864983968128577,-0.7271313163198642,-1.2034399455717376e-07,-7.560100416928102e-08,-0.07755450019007588,0.275700168281077,-0.4626668517099943,9.800000921289652
1727706092.9449341,-4.077177478271187e-07,3.869215732217404e-07,0.6877404047751118,-0.7259567036948203,-1.0177496809154295e-07,-1.3794612593465116e-07,-0.1318393359735974,0.25094949144269085,-0.42629353890063704,9.800000549956826
1727706092.9944985,-4.063140918310673e-07,3.8798461230192496e-07,0.6901028697194671,-0.7237112885706842,6.345855083936823e-08,-1.9140124309184398e-07,-0.1696784908664692,0.016793177472505697,-0.009230699357275796,9.8000003190907
1727706093.0231957,-4.0601561779140354e-07,3.8970195708898654e-07,0.6919158022935892,-0.7219782008731993,6.413381658936479e-08,-1.8816750924128839e-07,-0.16529424553414052,-0.01376968099228431,-0.0058635674861872294,9.799999995616805
1727706093.2114098,-4.0572003915943203e-07,3.9136749600729244e-07,0.6937861309613486,-0.7201810914522573,6.15650892801105e-08,-1.9860029431676165e-07,-0.1888152255880883,0.3351191220375906,0.038872848191648275,9.799999957854693
1727706093.2202275,-4.0483480368136925e-07,3.940090988855755e-07,0.6973179682496039,-0.7167619208328001,5.9105046655580823e-08,-3.0275459065128687e-07,-0.27903072526533895,0.3085284373735561,0.025323447306333326,9.799999955566037
1727706093.2511783,-4.037368523505113e-07,3.965108462122169e-07,0.70071420566621,-0.7134420803241508,6.313556650966881e-08,-3.687067752605449e-07,-0.3282992119902161,0.10986354157834344,0.006649804822191484,9.799999817858188
1727706093.2528021,-3.9379358191177157e-07,4.1751119369005596e-07,0.7268202961369447,-0.6868276764393487,4.141176129858097e-08,-3.024403035570468e-07,-0.24479339729397742,-0.4266800427511851,-0.07171639530933151,9.799999999204683
1727706093.4530728,-3.923629240888236e-07,4.199913336795747e-07,0.7301029537595705,-0.6833371619568338,3.905792289052473e-08,-2.8001562631146005e-07,-0.2553418391787208,0.3129675948157791,0.02890072479561189,9.799999952512263
1727706093.4571311,-3.910096772777529e-07,4.220391741858578e-07,0.7331623698324349,-0.6800536298420568,3.786623862390178e-08,-3.565907270684712e-07,-0.32112298097824205,0.3090116979945877,0.01947986232731393,9.799999967282998
1727706093.48647,-3.8921081249773203e-07,4.244577897937332e-07,0.7368743918229527,-0.6760296818004531,3.674745891993493e-08,-4.330644225782097e-07,-0.3868986865095872,0.30979350618992474,0.00865529375745108,9.799999980035823
1727706093.5124114,-4.047038072104854e-07,4.014677396233302e-07,0.7042254066550148,-0.7099764620191673,7.137793236292096e-07,-3.752362998409911e-07,-0.32412792074234426,-0.10762483189191156,1.7860017957900371,9.80001085809612
1727706093.5159657,-4.0938310229844137e-07,4.100603357890558e-07,0.7074740494426451,-0.7067393220734856,4.697143076856466e-07,-3.5180962253317207e-07,-0.2913830139909893,-0.23348931062211706,1.152836416955409,9.799994113742912
1727706093.555376,-4.1076815026777324e-07,4.158208430569095e-07,0.7107579197938038,-0.703436691856519,2.389702547681853e-07,-2.486697083318816e-07,-0.197479945938475,-0.3068304733518188,0.5483888456281396,9.79999926439792
1727706093.585582,-4.083138936314464e-07,4.156370344810758e-07,0.7125239797997593,-0.7016477593564827,-6.772843795177442e-07,-1.9406082640455687e-07,-0.16217588567579658,-0.03475668366194928,-1.9353872845436342,9.799987461020066
1727706093.6320283,-4.0180531489790137e-07,4.110168062176514e-07,0.7140803282438989,-0.7000637719627799,-2.7189080485074744e-07,-1.6729720761092823e-07,-0.1324571689451544,-0.2836140064318699,-0.8972157674112435,9.800008060881462
1727706093.6730578,-3.984281021674162e-07,4.0923238664402e-07,0.7151178524643202,-0.6990039034844457,-1.693535475402079e-07,-6.033894924659032e-08,-0.03954508122994326,-0.3190797616495595,-0.6362150381919187,9.800000838740846
1727706093.759671,-3.8631552415004267e-07,4.2832740733486134e-07,0.7425930461618894,-0.6697429117143929,3.492156559593838e-08,-5.02707239882779e-07,-0.446386088484502,0.3109757735071911,-0.002908901082059872,9.799999784706268
1727706093.769539,-3.837282890592765e-07,4.3153585260890827e-07,0.7474466807461284,-0.6643218041290393,4.597616394352932e-08,-5.717195928608486e-07,-0.4976586604200283,0.1215798817821397,-0.007621351324332716,9.799999861884364
1727706093.799856,-3.808643028809431e-07,4.3489850516768715e-07,0.752427269328133,-0.6586753406429264,4.115987672465948e-08,-5.833543065821682e-07,-0.5027089278357065,0.012020536653650564,-0.03426521808479249,9.800000026340985
1727706093.8423293,-3.769537889343912e-07,4.393468607298903e-07,0.759015113543561,-0.6510730046716114,3.9468514650257835e-08,-5.847579322170418e-07,-0.5030244537057148,0.00516942678337368,-0.03539497921426785,9.80000003170537
1727706093.8772535,-3.977224209817815e-07,4.0876314962197513e-07,0.7153075222300523,-0.6988098086323472,4.840463731286721e-08,-1.8724894720977117e-08,-0.03244582238382024,0.38789260455539515,0.0538294299305273,9.800001933096611
1727706093.886601,-3.978774358917416e-07,4.096053922358098e-07,0.7162049848610825,-0.6978899767583786,4.679137755696938e-08,-1.1099444066860101e-07,-0.1116521222954741,0.36107378628781245,0.04774108130328421,9.799999931846362
1727706093.9023268,-3.739740658023237e-07,4.4264448278212106e-07,0.7639061041421223,-0.6453274084168973,3.8261818928557893e-08,-5.852889405046608e-07,-0.5030316127795113,0.005014103143684957,-0.03541714348387366,9.800000032056388
1727706093.9281013,-3.9731151520083786e-07,4.1142772797875545e-07,0.7186161607067659,-0.6954069409854494,4.4798221787992166e-08,-2.2438505381514093e-07,-0.20872642224984966,0.328531326614922,0.036113998572607414,9.799999945774609
1727706093.9314284,-3.708634123304916e-07,4.458718226049887e-07,0.768963883608214,-0.6392922224662495,2.851964591971813e-08,-6.223395440907796e-07,-0.546877091546086,0.3128561111451279,-0.026281715198103545,9.800000022447902
1727706093.9962614,-3.9633546550340664e-07,4.1326837981471254e-07,0.7212355822453564,-0.6926898547711478,4.099093432531586e-08,-2.996873583297849e-07,-0.26939497068024615,0.2189955130190535,0.007284524458009248,9.799999923819618
1727706094.0289521,-3.9509188547778226e-07,4.153876400392944e-07,0.7240827928675532,-0.6897130628549785,4.448688442755796e-08,-3.1679859461131836e-07,-0.2752344432371081,0.006152832739679043,-0.009979970741959878,9.800000001262925
1727706094.1691537,-3.674653329024777e-07,4.495432648670314e-07,0.7745125264992816,-0.6325585714345845,4.479333963702288e-08,-6.851035107152747e-07,-0.5912927063312788,0.09538615054283696,-0.021514351524354533,9.799999674481368
1727706094.1749063,-3.628708758964786e-07,4.539174455463909e-07,0.7807841014396592,-0.624800917844017,2.518272725634594e-08,-5.41178579665301e-07,-0.4432832549396626,-0.514558636109203,-0.1224652622635116,9.800000137937552
1727706094.2024815,-3.602830843911584e-07,4.564520129897664e-07,0.7842330815632279,-0.6204663357358764,2.4379000980652632e-08,-4.117136580247557e-07,-0.3322929729435208,-0.51633056598439,-0.10117944334099042,9.800000113544781
1727706094.2349129,-3.584444055897254e-07,4.583621596284117e-07,0.7866312806883,-0.6174230545115288,2.3729693057923775e-08,-2.8215288819716737e-07,-0.2213209995706682,-0.5173901796678808,-0.08568846889250667,9.800000095834477
1727706094.328007,-3.564019741032098e-07,4.6056656671171015e-07,0.7900513136533841,-0.6130407178925581,2.3404395568485384e-08,-3.4844335820355427e-07,-0.31088375563851106,0.308299129787213,0.02091227872201172,9.79999996850208
1727706094.3579795,-3.543186825319734e-07,4.6261260932554523e-07,0.793302050334928,-0.6088282655511813,2.265673914886075e-08,-4.2568339834781494e-07,-0.37664845618850157,0.308929813769235,0.010408663639990627,9.799999980954757
1727706094.5414422,-3.517535965034936e-07,4.649906744815903e-07,0.7971263034794234,-0.6038126003164309,2.1963996812499344e-08,-5.029780265053214e-07,-0.44240389964650423,0.3096345774547551,-0.0021572929596569033,9.799999995793051
1727706094.5469797,-3.480223010659779e-07,4.691740172617411e-07,0.8029042843968475,-0.5961079684896395,3.399314638565555e-08,-5.74232799750056e-07,-0.49145287426152495,0.0432849518299469,-0.012144760157626324,9.799999645218929
1727706094.596573,-3.4477677760755e-07,4.720926868933377e-07,0.8072893905040387,-0.5901557760280552,2.737280684723329e-08,-5.783136477349211e-07,-0.49312587066077757,0.007135642540688305,-0.03347764270279059,9.800000027211425
1727706094.827451,-3.414885882242424e-07,4.7497590374049213e-07,0.8116333309388353,-0.5841672158798273,2.644810599912185e-08,-5.788818576500033e-07,-0.49322650459921197,0.004952588946117006,-0.03402821164743262,9.800000033448033
1727706094.831286,-3.4380384274621936e-07,4.856656010998854e-07,0.815803090513064,-0.5783297653665936,6.627055910851557e-07,-5.657493427091169e-07,-0.47081785283526156,-0.0892577783314456,1.7581570240028987,9.79999777353877
1727706094.8603594,-3.4460608514075877e-07,4.963960965272368e-07,0.8208220475777893,-0.5711840038112411,2.815548840752544e-07,-5.108737518736228e-07,-0.4082031989841526,-0.25759515897919816,0.7489114594846386,9.799996970278313
1727706094.890856,-3.4341528377124693e-07,5.009445818362518e-07,0.823892146612106,-0.5667466195316273,1.9099908253723965e-07,-4.2654127396625984e-07,-0.334957499000621,-0.3048080497427752,0.5238916047064126,9.799999193634173
1727706094.9214687,-3.4253344663441475e-07,5.049603640132688e-07,0.8265326943625957,-0.5628887147112966,-5.428338222340493e-10,-3.781887243768911e-07,-0.3048800000627704,-0.011955470033430603,0.059611043041337484,9.799997424999251
1727706094.9735851,-3.390980730347704e-07,5.06615669770787e-07,0.829933718802288,-0.557862010173334,-2.8841580912290827e-08,-3.731324556996677e-07,-0.30331774976452214,0.044622199649784824,-0.012723741741797318,9.800000018905921
1727706095.2099957,-3.3807127458046434e-07,5.100051815547147e-07,0.832326154833337,-0.5542861823823296,-2.1677711651993117e-08,-3.516638685329872e-07,-0.2839306605489207,0.024656965592652742,0.019111263935241277,9.799998526154033
1727706095.213336,-3.3979235993723574e-07,5.173421312728333e-07,0.8345410763877694,-0.5509457249322839,2.4891808308167813e-07,-3.279018990779196e-07,-0.25152614155248343,-0.2344356119187924,0.7678121897117139,9.799992590175
1727706095.24557,-3.3964040060747526e-07,5.221644930666536e-07,0.8367001316132301,-0.5476612910896801,1.7377793238671308e-07,-2.2205378861336222e-07,-0.1652154738394309,-0.2633410183767228,0.5893218320256365,9.79999753703959
1727706095.2805526,-3.3865655069232574e-07,5.232387708688325e-07,0.8378347411423568,-0.5459239384149879,-5.427467372860581e-08,-1.7056793562420722e-07,-0.13506926195342844,0.007881490565150785,0.006334851344869279,9.799999469569256
1727706095.3609483,-3.3779981335739473e-07,5.242005386542735e-07,0.8388684265786557,-0.5443342382112866,-2.9398223136248368e-08,-1.5343266918582268e-07,-0.12083782013263686,-0.011817601387183244,0.07484052186554131,9.799996297714806
1727706095.3900735,-3.3638759180819835e-07,5.241051213606229e-07,0.8398455152941119,-0.5428254880161576,-5.773033572784392e-08,-1.4980883473429352e-07,-0.11971431432377203,0.028259898366979907,-0.0018616331716821567,9.800000003078273
1727706095.6059356,-3.35439728315176e-07,5.251276517435e-07,0.8409610835286788,-0.5410956070694733,-5.7872133930360405e-08,-1.2663717785000646e-07,-0.10125663478904677,0.02150842626696665,4.159321004682241e-05,9.799999923414662
1727706095.609759,-3.325145118185281e-07,5.218995831810252e-07,0.8414004268521469,-0.5404121775946966,-2.913921278213458e-07,-5.549189818112469e-08,-0.03433951219401163,-0.28785327423872614,-0.7038797914830252,9.800003307712737
1727706095.6285453,-3.317135177659656e-07,5.210833821395407e-07,0.8415902301448367,-0.5401165471677194,-4.9063044229200844e-08,-2.6107602591885802e-08,-0.0221207445468024,-0.004545108058562552,-0.005172360589868468,9.800000181715523
1727706095.9268107,-3.3101113093868606e-07,5.204287693627777e-07,0.8418264839390537,-0.539748247740027,-4.580546279292367e-08,-2.5328802414957313e-08,-0.021854022297750558,0.004937253275860985,-6.698279380385692e-05,9.800000008631747
1727706095.9303386,-3.249551712372767e-07,5.112812316666105e-07,0.8419963645288995,-0.5394831991079514,-7.239825967758272e-07,-2.2964014987726487e-08,-0.020562018517371366,-0.0030751722246150255,-1.9228042783691532,9.800002473789643
1727706095.9540439,-3.190912923503282e-07,5.023985213188495e-07,0.8421560601400178,-0.5392338735364168,-7.024115726538452e-07,-2.1002713711001346e-08,-0.01933449188477579,-0.00417615616524737,-1.9225748069827822,9.800002428323658
1727706095.9941168,-3.125171058283406e-07,4.924427526251254e-07,0.8423964284207159,-0.5388582906327797,-3.2081531255000435e-07,-2.7070003808818594e-08,-0.033522695993652055,0.21555720582074597,-0.9113090801997471,9.800008195491742
1727706096.0292506,-3.1046641011336176e-07,4.899794916561167e-07,0.842960500297128,-0.5379754594202966,-1.5922492478407282e-07,-8.980402946001589e-08,-0.08958387031171572,0.27633473594633023,-0.47828702629232916,9.800001186512496
1727706096.0968766,-3.0861125459675653e-07,4.887401134474232e-07,0.843972477687205,-0.5363864809129573,-1.3245441381718858e-07,-1.5327326558454827e-07,-0.14327399668501883,0.2489699866807432,-0.42225677505402254,9.80000056747622
1727706096.1267998,-3.066065967252231e-07,4.881181925985419e-07,0.8453847647680515,-0.5341578413706327,-6.79464572267992e-08,-2.1010198195080512e-07,-0.1895676412405799,0.16974585348364027,-0.2680689973029503,9.800001412442892
1727706096.3141785,-3.049289879972036e-07,4.899169313609489e-07,0.8478029518240486,-0.5303113753994884,3.397211795046733e-08,-2.863068466980698e-07,-0.2609010099379141,0.311115337494477,0.027904661237790822,9.799999958094075
1727706096.3362942,-3.031907332506622e-07,4.916603708185207e-07,0.850094235347236,-0.5266306020628353,3.634637477096957e-08,-3.3737070995876224e-07,-0.29329000354716495,0.033519013318588316,-0.005469977171559779,9.79999989980971
1727706096.367348,-3.012994956340151e-07,4.934476441764087e-07,0.8524088241105129,-0.5228758902246291,3.452458593374935e-08,-3.4015233168913814e-07,-0.29414452265396845,0.0023970483049498633,-0.012001768162767611,9.800000006029547
1727706096.4115782,-2.987451417511228e-07,4.958004500625865e-07,0.8554702526273981,-0.5178519545867147,3.313398519068933e-08,-3.406099971880699e-07,-0.2941630799510411,0.0017209374504375508,-0.012103930233600756,9.800000006846252
1727706096.4432435,-2.9680875785630405e-07,4.975247804572417e-07,0.8578032671713656,-0.5139781657130923,2.9286555856882488e-08,-3.5191998877072687e-07,-0.31609019787776,0.3090193326301476,0.02015880096612903,9.799999940923582
1727706096.4760876,-2.945534132397491e-07,4.994519371573187e-07,0.8605349758567481,-0.5093913577269344,4.16892774286938e-08,-4.2279634090738654e-07,-0.36976943059328043,0.14011930023311833,0.024660819389258244,9.800000212705717
1727706096.7069736,-2.953125303777869e-07,5.092443405322618e-07,0.8642361357446592,-0.5030863759562492,3.6463280761749186e-07,-4.254641367585575e-07,-0.36387858840153964,0.08657162694726818,0.9518835995809527,9.799992688412953
1727706096.739537,-2.937640821507404e-07,5.132403006072407e-07,0.8671596513641086,-0.49803025916677773,1.3206166223021178e-07,-4.6975274845062883e-07,-0.40435135630570623,0.24443581921067256,0.34222728816536585,9.79999867375398
1727706096.7677457,-2.916416832765803e-07,5.170877720575161e-07,0.8703811058901906,-0.4923786454640538,1.5422098549612418e-07,-5.250979191093308e-07,-0.44816788422317094,0.23411152595666487,0.40460833400281476,9.799999528239665
1727706097.0154715,-2.8849251924190175e-07,5.197173370033011e-07,0.8735080892108034,-0.4868096322824126,-2.161730678211065e-09,-4.89342916372231e-07,-0.3889850323837979,-0.48029074228039687,-0.11085761835307188,9.800000134466924
1727706097.032212,-2.8406773103266975e-07,5.200996849301105e-07,0.8764348962720576,-0.48152037609662657,-2.133172345272325e-07,-3.2430936944163007e-07,-0.2570210456730667,-0.3623450601935613,-0.6612103411053906,9.799999451710171
1727706097.0624306,-2.805868686850552e-07,5.180747929329976e-07,0.8779135891934045,-0.47881909935716516,-2.2666430648303925e-07,-2.289498680897371e-07,-0.17994540900075484,-0.3408422074299264,-0.7044580383842084,9.800000930275575
1727706097.094561,-2.787967935602386e-07,5.179285209792595e-07,0.879197917350694,-0.4764567368878899,1.1499354658251045e-08,-2.2303335684860356e-07,-0.2030848700301039,0.3379301608791159,0.03678654327082381,9.799999951676034
1727706097.1459994,-2.764732720360018e-07,5.194395409349265e-07,0.8816584903066541,-0.47188802323204265,1.0788112240462793e-08,-3.303165664799692e-07,-0.2925680726185902,0.3200929747112061,0.023473832566301783,9.79999996803794
1727706097.1747575,-2.741070052188219e-07,5.208835478934354e-07,0.8840295986054714,-0.4674309240830161,1.0327791834827991e-08,-4.086939572505066e-07,-0.358576549755692,0.3236126302398479,0.013553925573776156,9.799999979835873
1727706097.3899922,-2.7278979907024763e-07,5.255170189620858e-07,0.8867167540450187,-0.46231309531043485,2.573947727186354e-07,-4.595673602791588e-07,-0.3924552213488162,0.15175615052540314,0.6802088760933802,9.799995812133483
1727706097.4171884,-2.6930827912722914e-07,5.294097222276085e-07,0.8905301741223357,-0.45492417937200214,1.300497938621078e-08,-5.025592843456531e-07,-0.42189407136551244,0.054636475926401716,-0.0009633411497738356,9.799999545759057
1727706097.4517126,-2.6596291760024876e-07,5.312170766150817e-07,0.8933971141449004,-0.4492678448734237,5.45101198682982e-09,-5.048865542305318e-07,-0.4229153411686516,0.0328403885167937,-0.02437393827645188,9.800000020568799
1727706097.485584,-2.625261047504697e-07,5.32850577412109e-07,0.8962350784448543,-0.4435794000678943,-2.6376194616284615e-08,-5.063353799120527e-07,-0.4254919188811163,0.06707812995680831,-0.10768518457262911,9.799999507646461
1727706097.5070403,-2.591017318939562e-07,5.345739371995443e-07,0.8990563980433361,-0.4378328369788969,4.957707957813891e-09,-5.095742410273686e-07,-0.42701587852422646,0.0333911296714844,-0.026393566327927765,9.800000058703462
1727706097.5498023,-2.5426878659214517e-07,5.365598925708854e-07,0.9028858150810666,-0.42988045422541055,2.5123481309313963e-09,-5.346561062761036e-07,-0.44943860249531736,0.06307577872525862,-0.0351199473220981,9.800000286004472
1727706097.768462,-2.490916377928447e-07,5.350366844718075e-07,0.9057903055665351,-0.42372623513459123,-2.508698431709917e-07,-5.397084018848472e-07,-0.46002466441031264,0.15953657167495577,-0.7382861417487628,9.800005280093009
1727706097.7988384,-2.441750535643854e-07,5.343631823877376e-07,0.9088418253357767,-0.4171409072723367,-1.4117243667839473e-07,-5.777462893981774e-07,-0.497959197532836,0.2232835056502046,-0.45025818890974156,9.800000967492386
1727706097.8520591,-2.3754858501995364e-07,5.345413916155274e-07,0.9132531897836025,-0.407392453722124,-1.2551910871631419e-07,-6.441548129579264e-07,-0.5573398785137491,0.22373988004502704,-0.43517437353700844,9.800000545315191
1727706098.0975497,-2.3545105440859018e-07,5.421569514157763e-07,0.9166715901009506,-0.39964133407525015,6.699898271012718e-07,-6.62507383668517e-07,-0.5572951367015005,-0.09414274287595818,1.7367959372808117,9.799997812155388
1727706098.1125922,-2.346202102853113e-07,5.527349679415774e-07,0.9199015271839974,-0.39214943616456815,5.55671363694527e-07,-6.510605099265037e-07,-0.5392108533525923,-0.007218212195637732,1.4882980490334043,9.799996224529778
1727706098.1587017,-2.2992385363310047e-07,5.589576630532563e-07,0.924232486781831,-0.38183021145098944,6.975638841768933e-08,-6.896626021436765e-07,-0.5671877908824009,0.08756442576224423,0.17916876570761697,9.799996913902442
1727706098.185809,-2.2595173538251638e-07,5.631361016420306e-07,0.9275040912661525,-0.37381300229416886,2.301844944225489e-07,-7.104325765516329e-07,-0.5868420233441745,0.20752389476145774,0.6441753324658537,9.799999170447318
1727706098.2547433,-2.2117404426252637e-07,5.658918155583674e-07,0.9307776628102893,-0.3655857524754574,1.0674401296372943e-08,-7.232806597019139e-07,-0.5895573046507855,0.06905077777387719,0.024054192082471372,9.799999502848067
1727706098.28641,-2.1457888204868243e-07,5.641836240048573e-07,0.9340726335175115,-0.3570830650049039,-2.2904865220212068e-07,-7.456878604420694e-07,-0.6159253969333118,0.18347024175514245,-0.646149836332765,9.80000179965694
1727706098.519418,-2.0734176428058683e-07,5.664608989824476e-07,0.938455814362797,-0.3453993116500025,5.579775803388601e-09,-7.675143555135502e-07,-0.6346808303943309,0.1530136719061419,-0.013251222752494027,9.79999930405979
1727706098.5254576,-2.0183347572571145e-07,5.683962470789645e-07,0.9417155420388,-0.3364102226184651,-5.6133454434584014e-09,-7.747669733797168e-07,-0.6379550509933661,0.08340422805399787,-0.05526601678312905,9.800000056850255
1727706098.5580697,-1.9671779383178148e-07,5.715693272917613e-07,0.9449221469138175,-0.32729518216957687,5.799489994166715e-08,-7.876356345007724e-07,-0.6482784846218775,0.11230463139508165,0.12732328799313564,9.799996943891145
1727706098.5990515,-1.895501770832246e-07,5.752241752773702e-07,0.9491085194804461,-0.31494923122508,2.3170521275380336e-07,-7.96414086160009e-07,-0.6591922442098628,0.21701794879058114,0.6229617026694896,9.800003972404262
1727706098.629823,-1.8395209718213248e-07,5.77778726884242e-07,0.9522049958683,-0.3054597286764378,-3.3519958218367587e-09,-8.140403778170575e-07,-0.6665840448867235,0.1057971588314755,-0.03830661591006261,9.79999957026655
1727706098.66718,-1.783725234164307e-07,5.80626075309275e-07,0.9552334027434117,-0.29585325126297646,5.0690950024432286e-08,-8.245448301714208e-07,-0.6742933658016428,0.1124321478282813,0.1141764175752259,9.79999762844057
1727706098.9004588,-1.7149107634815491e-07,5.864691282967224e-07,0.9590514766589622,-0.28323182221969856,3.3603925014361916e-07,-7.934836837175787e-07,-0.6357557913294307,-0.15550633360510197,0.890531161311857,9.799998162993013
1727706098.9291346,-1.6683566986048136e-07,5.910024153977817e-07,0.9615181892252549,-0.27474128155158956,1.814753127673728e-07,-7.154960233752691e-07,-0.5653532808845602,-0.23472456147771192,0.49148799801563237,9.79999912979558
1727706098.959842,-1.627216535776171e-07,5.95182322909345e-07,0.9636234874735461,-0.26726349243572245,1.840716933420325e-07,-6.30373908599701e-07,-0.4944295864151594,-0.23394386315015991,0.5333854935562024,9.799998652095677
1727706099.2431061,-1.5917802407884615e-07,5.990483621801154e-07,0.9653907817209856,-0.26080766585313425,2.1886264820312336e-07,-5.427317358641055e-07,-0.42315706915074763,-0.21871918592756523,0.6629844674849885,9.80000023673112
1727706099.2614417,-1.5533284655593123e-07,6.036827117504969e-07,0.9672729870880837,-0.25373799173420564,1.1156120099309068e-07,-4.312089532395627e-07,-0.33300899556054125,-0.20347068001509197,0.4070544038564957,9.79999819996381
1727706099.2921178,-1.522108466738722e-07,6.039227463620894e-07,0.9684858755812494,-0.24906848214744542,-5.525242501047341e-08,-4.0164952303182336e-07,-0.320255828523231,0.06939070621033128,-0.012636355760974221,9.799999903249786
1727706099.324351,-1.4913405977134173e-07,6.040779002288462e-07,0.9696740821282723,-0.2444016662142578,-1.3845987996302013e-08,-4.021087673460373e-07,-0.3230965746488209,0.12268407450486585,0.1049465634729558,9.800000689167891
1727706099.379524,-1.4493764850754245e-07,6.040673478753056e-07,0.9712382861675426,-0.23810962072530573,-5.3024819100233345e-08,-4.05091498011351e-07,-0.3242860690030502,0.08125614263003945,-0.014310146038445154,9.800000025383273
1727706099.409201,-1.4198668515090269e-07,6.045193732530917e-07,0.9723120758269336,-0.23368617246369927,-2.9050607089902453e-08,-3.6580433991298507e-07,-0.2879524793727694,-0.06791890874168678,0.034821303889754865,9.799998864346945
1727706099.6163633,-1.391588088213202e-07,6.042267819801163e-07,0.9732604612061206,-0.2297043200561641,-8.947255737452821e-08,-3.33023163218691e-07,-0.2491916719711119,-0.42061233597292946,-0.1807482762661052,9.799999436740974
1727706099.6247706,-1.3568205517561544e-07,6.005889836696155e-07,0.9740939373595345,-0.226143762237697,-1.4940936021860054e-07,-1.9635994247514773e-07,-0.1537005301077184,-0.14928559034429817,-0.31887741267114483,9.800002894033145
1727706099.6532347,-1.3419509328395328e-07,6.001915318048743e-07,0.9745974568945872,-0.22396382970074719,-4.276920959932695e-08,-1.8072352079040483e-07,-0.14861404291407027,0.03005433703567651,-0.004418271570842255,9.80000005004858
1727706099.6888566,-1.323518193497833e-07,5.981204593151937e-07,0.975083336616556,-0.2218388754306801,-4.0380226807346414e-07,-1.7440186942548755e-07,-0.1389148321625137,-0.09979701154082761,-1.0262424185992358,9.799994100877285
1727706099.718923,-1.3097783351020754e-07,5.975732312540102e-07,0.9755327784457424,-0.21985403834716333,-3.6954218424552e-08,-1.6311173192367324e-07,-0.13528586517763325,0.026525137759358944,-0.005739707127340218,9.800000137987361
1727706099.7601714,-1.286647424114314e-07,5.943361829257877e-07,0.9760595698561474,-0.21750337030001077,-2.7629062213407587e-07,-1.2663240690305677e-07,-0.09437333424718287,-0.2923186931203357,-0.7246235829376522,9.800003066756721
1727706100.0206406,-1.2773866218047114e-07,5.935947461760893e-07,0.9763632392080328,-0.21613612637138824,-6.168534968891153e-08,-1.1304818085909378e-07,-0.11088197515169365,0.40108329231758005,-0.04473480116268489,9.799999584763837
1727706100.0501742,-1.263770679868741e-07,5.929686666829228e-07,0.9768911686596546,-0.21373732616088825,-6.039805051262268e-08,-2.1121208888942562e-07,-0.18957819958477606,0.39137657143553184,-0.05351519985260325,9.80000007170151
1727706100.119681,-1.2358400677653667e-07,5.928754315471445e-07,0.9779467647754558,-0.20885431588753828,3.920649333982631e-08,-3.2934644189099097e-07,-0.2822902039256137,0.31924239098812784,0.1949645761476794,9.800001695476078
1727706100.346048,-1.2176825211640226e-07,5.974484693302315e-07,0.9788967340727973,-0.20435553337563156,5.970389927551558e-07,-3.7914982724196773e-07,-0.30781163308684345,-0.020005199867225133,1.6965621290893393,9.800007407613782
1727706100.3479984,-1.196282643915617e-07,6.014160753535032e-07,0.9798764928078857,-0.19960475656191629,1.250318526150697e-07,-4.054487550593874e-07,-0.3366311237367757,0.27454845687982826,0.4557277224601322,9.799998193010623
1727706100.3831651,-1.1538874896622519e-07,6.020580043729892e-07,0.9812432791799818,-0.19277351234996126,-3.473872401323266e-08,-4.319882436683902e-07,-0.3501946853953152,0.09342052742430129,-0.012639132029760847,9.799999951602826
1727706100.4136372,-1.1218397063686188e-07,6.026781365099485e-07,0.9822435976339791,-0.1876100074800971,6.729038514843581e-08,-4.326743015621192e-07,-0.3510344932833229,0.0935845263822889,0.26750131647977743,9.800001694159644
1727706100.4794965,-1.0889445292768824e-07,6.029036106871412e-07,0.9832199572353773,-0.18242399977439133,-3.397246085540719e-08,-4.341229518181483e-07,-0.35194656933427704,0.08934361478343296,-0.013447136175718511,9.799999949331518
1727706100.512724,-1.0599549540131589e-07,6.054070045251356e-07,0.9841942085587974,-0.17709251773845341,1.5694111955433837e-07,-4.521123142019801e-07,-0.3722492328926277,0.2670749998526179,0.542855822249512,9.79999724959684
1727706100.7127914,-1.0177640279875765e-07,6.089358203303827e-07,0.9855242053994095,-0.16953477687920332,5.308449370867259e-07,-4.772203776813367e-07,-0.38269727774387374,0.050742980589511905,1.5511304517788542,9.80000919747941
1727706100.719424,-9.855751509268313e-08,6.121159534353779e-07,0.9865335253954297,-0.16355917360539796,1.2226219245961452e-07,-5.128411208556836e-07,-0.41714204187976245,0.3127210355932212,0.47284040245249154,9.79999853114114
1727706100.7521021,-9.471752877680314e-08,6.138660483118094e-07,0.987584283576515,-0.15709004689118755,-2.583080710354245e-09,-5.536739418040012e-07,-0.4426308891374801,0.18923862679395406,0.11178719377750905,9.79999698020005
1727706100.7959843,-8.922008040574379e-08,6.152459231216335e-07,0.9889459741542512,-0.14827629683706378,2.3266294947982952e-07,-5.615836496781223e-07,-0.4499389708809236,0.2070357235053567,0.7618090900720307,9.800004604441716
1727706100.8252816,-8.494986440744933e-08,6.157690657606892e-07,0.9899252215778925,-0.14159115679862894,-2.992548253026229e-08,-5.661392132725871e-07,-0.4493602751398651,0.12817429675079656,0.028527502420858032,9.799999722239297
1727706100.8549905,-8.064636860373865e-08,6.158356177581282e-07,0.9908514641401398,-0.1349569413218733,-4.230739972896619e-08,-5.603604704678208e-07,-0.4454532212836413,0.13265200774168512,-0.006529811224010085,9.799999850750734
1727706101.1140456,-7.50825678939393e-08,6.168642708191454e-07,0.9920195473989866,-0.12608416862526273,1.9891039857837799e-07,-5.641174523441033e-07,-0.4549249992380931,0.2831880292677787,0.6775432696417678,9.800004063112114
1727706101.1487253,-7.083310623571735e-08,6.18617745634063e-07,0.9928872713744323,-0.11905824768677886,-2.322641930706208e-08,-5.992072980131785e-07,-0.47709846677780404,0.21021614820242,0.05730444922135089,9.799998138120488
1727706101.2017314,-6.543527073746492e-08,6.11492157772337e-07,0.993708206569133,-0.11200000087847989,-7.46233964611989e-07,-5.890385728108926e-07,-0.4689889454102517,0.09506932557329964,-1.9837799621007257,9.800002589125093
1727706101.4511728,-5.9941412936176e-08,6.010799035060608e-07,0.994456169651663,-0.10515192171985122,-7.241111906896016e-07,-5.584963160626418e-07,-0.45432210076999746,0.0603864883603273,-1.9809031021589458,9.800002538336198
1727706101.4546638,-5.565744569918849e-08,6.134406576367835e-07,0.99534463053641,-0.09637980318489264,5.827733218523812e-07,-5.389814539158526e-07,-0.43284697927185883,0.05021787706739613,1.6751817972325338,9.799997818309064
1727706101.4841077,-5.2203803121307806e-08,6.200072924774129e-07,0.995946125938671,-0.0899517327646665,2.0028548684877933e-07,-5.415961814355749e-07,-0.43678607786671875,0.28434853072420146,0.6899610929786296,9.799994004205193
1727706101.5155056,-4.813163386469696e-08,6.225103145028207e-07,0.9965441169459833,-0.08306517308692246,1.0498122061956571e-07,-5.899456296996556e-07,-0.4750061521706611,0.3701239409394117,0.4424197188718548,9.799999039884266
1727706101.5851,-4.202536203412015e-08,6.24071056430659e-07,0.9973077111791536,-0.07333027493611649,-3.491380674829395e-08,-6.200297996306681e-07,-0.488799218067319,0.17527654888668873,0.03149547365936183,9.799999504041914
1727706101.6144936,-3.7465833850123455e-08,6.257580620053551e-07,0.9978083480365678,-0.06617023944450023,2.7135884273593827e-08,-6.017098068222897e-07,-0.4711353989551655,0.11029105167014665,0.20430790744254956,9.799994671709312
1727706101.8440332,-3.291531689979247e-08,6.25391513775642e-07,0.998247553138409,-0.05917620005362956,-4.7852190907226574e-08,-5.916059011503857e-07,-0.46575834908060104,0.1651152861279452,0.004495949287324139,9.80000003546119
1727706101.8522491,-2.7399346105786584e-08,6.327750698376931e-07,0.9987362456178188,-0.0502584489297343,1.735039417284293e-07,-5.543696560463814e-07,-0.42071308477447056,-0.1230579976809826,0.618412411688781,9.799997341496633
1727706101.8763454,-2.34794500188385e-08,6.330286196891518e-07,0.9990141006355128,-0.04439399431247798,-6.642582766354564e-08,-4.963492424835448e-07,-0.3846881332522798,0.10452746902461797,0.0015053683064299792,9.799999333142685
1727706102.1700625,-1.973051301071543e-08,6.320811942210759e-07,0.9992508300140823,-0.03870114618157333,-6.889962725993236e-08,-4.843061081200998e-07,-0.37802818195940846,0.14829870925016927,-0.0031935090161069987,9.800000203376397
1727706102.1720898,-1.633371308401758e-08,6.378972506775267e-07,0.9994440313566841,-0.03334108854089557,2.030535716405451e-07,-4.5130431137125443e-07,-0.33941018669450385,-0.12324659613292961,0.7422033851529043,9.799995428233123
1727706102.1986623,-1.2401116614760529e-08,6.397973961527148e-07,0.9996211827260353,-0.027522555204653687,-5.760748240128085e-08,-3.5781379888684637e-07,-0.27588359432619713,0.08619386317424986,0.07837235101035911,9.799996178815933
1727706102.234072,-9.702064424138206e-09,6.385517163311296e-07,0.9997260608607776,-0.02340519676022812,-8.997625579127734e-08,-3.525487547764821e-07,-0.2744243796744765,0.1370850973987846,-0.00997253374379141,9.800000017125262
1727706102.2634075,-7.13888691669588e-09,6.374615136358986e-07,0.9998086188067663,-0.019563378013515154,-8.744152511305533e-08,-3.2574634096069257e-07,-0.25400520207059124,0.11229529804091469,-0.009363288350873859,9.799999962663314
1727706102.3229523,-3.861820464208963e-09,6.359607717026784e-07,0.9998939266546156,-0.014564870023782095,-5.773638906881625e-08,-3.145167727249761e-07,-0.2390133648675804,-0.0761691370173354,0.0388250569204008,9.800000477876717
1727706102.582611,-1.5947611344893655e-09,6.347786281557507e-07,0.9999389075197751,-0.011053561767869369,-8.26118441762147e-08,-2.968428256155006e-07,-0.23352139832520333,0.11360347349945217,-0.007715430346450711,9.800000016394558
1727706102.5849955,6.687745594545861e-10,6.232716241902357e-07,0.999970433389541,-0.007689755935346099,-7.619768734703767e-07,-2.767408066938344e-07,-0.21964932433436357,0.04260000932167206,-1.9432208242610274,9.800002574596284
1727706102.615315,3.335139512743478e-09,6.084492270125544e-07,0.9999937961306,-0.003522456520872741,-7.317606093926822e-07,-2.463255530133865e-07,-0.20174149390278073,0.02117987754855152,-1.9407463799023188,9.80000250820427
1727706102.6450064,5.093376490771067e-09,5.977118817148083e-07,0.9999998053209314,-0.0006239853697946884,-7.098767945550626e-07,-2.2542689870918193e-07,-0.18904629005006052,0.007627909739769677,-1.9389918430018227,9.800002460171303
1727706102.7325547,6.713641216748172e-09,6.068564875170663e-07,0.9999978201312576,0.002087997213776338,6.026541218458763e-07,-2.1280312831254183e-07,-0.1767853703013959,0.00504404849188823,1.7147888497545893,9.799997797691612
1727706102.7649927,8.278475433453486e-09,6.157255771311247e-07,0.9999893017427229,0.004625624252177274,5.847820936406147e-07,-2.022827005324747e-07,-0.16547213192344767,0.014244616001440285,1.716166550220776,9.799997769028549
1727706102.9988937,1.0280264884359004e-08,6.271368505119217e-07,0.9999698840080153,0.007760868289260481,5.617620992193529e-07,-1.8909527756131594e-07,-0.15172250928857497,0.02470450009024544,1.7177279728461898,9.799997732330507
1727706103.0071352,1.1666049196469728e-08,6.25672714974051e-07,0.9999493012080362,0.010069509082801742,-1.0451256742204491e-07,-1.8970560215516315e-07,-0.15267230684500221,0.04373023501735207,-0.11666382526319242,9.799999513232901
1727706103.0241344,1.30385640048689e-08,6.246860656681145e-07,0.9999237573402643,0.01234825923513222,-6.286973549308371e-08,-1.8688318996147723e-07,-0.1518372153689126,0.07226919069452775,-0.003508970686612128,9.80000002934879
1727706103.307179,1.4859800288472983e-08,6.234520112675407e-07,0.9998816534677792,0.01538437708037138,-6.033092604744532e-08,-1.8657617910103756e-07,-0.15181889018913064,0.07290186107692495,-0.0031084134865769883,9.800000014757481
1727706103.3096576,1.621065032908584e-08,6.265719642081305e-07,0.9998487564512284,0.017391498570826336,-3.774844769646262e-08,-1.5629687608589845e-07,-0.1248900560113394,-0.0020835219169999244,0.06802641182816169,9.799996452292401
1727706103.3303242,1.7303170474789165e-08,6.256038064231023e-07,0.9998148879936385,0.019240315638674566,-6.469665099151142e-08,-1.505721276601437e-07,-0.12308262316969071,0.06044735500959706,-0.0020273798487773875,9.800000005153299
1727706103.3726032,1.874962473698917e-08,6.243230490130279e-07,0.9997643373147718,0.02170875015207624,-6.225695014770132e-08,-1.508477142880008e-07,-0.12348391792141178,0.062129858546409886,-0.0020449545767555638,9.800000013953424
1727706103.4078562,1.9788452130940008e-08,6.233696473669734e-07,0.999725040002914,0.023448760964772497,-6.046419748720133e-08,-1.4029928116664213e-07,-0.11514131983694637,0.05138010570837496,-0.0029593278865065664,9.800000026595166
1727706103.4393997,2.078847985824248e-08,6.224703327836137e-07,0.9996834113329288,0.025161023535822447,-5.772691383613984e-08,-1.3823967574188483e-07,-0.1125736712536203,0.024147859676070943,-0.003924986749734257,9.800000029865345
1727706103.470892,2.175780997891407e-08,6.215921739828869e-07,0.9996398247149985,0.026836930587909258,-5.688687429694203e-08,-1.3535665795628197e-07,-0.1116684779278846,0.055372441465238474,-0.0017809410003554625,9.800000012600377
1727706103.7114918,2.27733642855957e-08,6.204732422792654e-07,0.9995985308652826,0.02833332122401072,-4.997014209820761e-08,-6.155759922522674e-08,-0.04938644941155899,-0.09710855602039865,-0.005415342231552194,9.799999475281199
1727706103.721987,2.310234328265613e-08,6.19670275201019e-07,0.9995785937071637,0.029028176002368733,-5.279800307138922e-08,-5.1126796827921826e-08,-0.0459797150911023,0.020402570336126222,-0.0006416346441247572,9.800000010303807
1727706103.7573733,2.341764703527672e-08,6.188877764550937e-07,0.9995583646392989,0.029716589293297624,-5.1241116991404134e-08,-5.100771806546287e-08,-0.04590619484335422,0.022938344429876144,-0.00029377073744497753,9.80000001014718
1727706103.8138056,2.3831725890648665e-08,6.17879640780762e-07,0.9995313782362809,0.03061084645510631,-4.922210464416455e-08,-4.897621877935912e-08,-0.044156269461295326,0.02076722512942758,-0.0004643177177490166,9.80000001045661
1727706103.8449254,2.4134430895320358e-08,6.171494785337212e-07,0.999510899895645,0.03127236782554327,-4.77615970115718e-08,-4.8965160312539157e-08,-0.044118528730158146,0.022068924721381226,-0.0002677494824776093,9.800000009443465
1727706103.8812435,2.409303850457277e-08,6.061444067064335e-07,0.9994908024153237,0.031908241675220106,-7.262163073071027e-07,-4.499996974075317e-08,-0.041572600598517855,0.007171618051443144,-1.924754944423119,9.80000248015371
1727706104.079485,2.4653033369731883e-08,6.115354222327904e-07,0.999465347478592,0.03269585889868043,5.938015342040626e-07,-4.211707701784931e-08,-0.03807684793918058,0.0064235001344291566,1.7276536459851985,9.799997766403557
1727706104.1054451,2.501851753883595e-08,6.1540219295382e-07,0.9994508576937939,0.03313582735891524,-1.0161564097247821e-08,-2.572055100299318e-08,-0.023961985599519113,-0.026948941166219837,0.0876606583236876,9.799995811949042
1727706104.1379716,2.512739720162216e-08,6.147776788266004e-07,0.9994393716158061,0.03348047884699251,-4.2795101370448036e-08,-2.248292569644545e-08,-0.022873592112465237,0.01060752922037524,6.999714123852282e-05,9.799999997069715
1727706104.4111636,2.5226316210281328e-08,6.141462625473149e-07,0.9994287533637425,0.033795960548819004,-4.158335839236548e-08,-1.9157897867232558e-08,-0.019685544523104864,-0.0023642022255603887,-0.001743668613145013,9.800000008068618
1727706104.4261153,2.5326897325031578e-08,6.133327393111696e-07,0.9994155858494701,0.03418313561953107,-3.995666906191738e-08,-1.8281565020295857e-08,-0.01933857447163952,0.00960341274529968,-5.615882738286776e-05,9.800000007832647
1727706104.4576159,2.541536910154417e-08,6.127178053463736e-07,0.9994045825523372,0.03450333857777582,-3.882279339095617e-08,-2.119470092499863e-08,-0.021600435915541068,0.012551789248644148,-4.541644812137167e-05,9.800000017667836
1727706104.4862242,2.5517836497289832e-08,6.121456747573731e-07,0.999393328009057,0.03482780398770152,-3.7589805748381655e-08,-2.147467896060795e-08,-0.02164923578720003,0.01086855144679871,-5.379253033511635e-05,9.800000007327588
1727706104.5343626,2.565940824063878e-08,6.11426407081861e-07,0.9993782652939927,0.035257380186220544,-3.259692338274609e-08,-2.1289228772285472e-08,-0.021017509467285134,0.0019766650025850323,0.008465417094345116,9.800000065053862
1727706104.573793,2.5760463960023356e-08,6.108951926452107e-07,0.9993672141214727,0.035569247092295475,-3.5065075353482166e-08,-2.067503136475461e-08,-0.020778738637390853,0.01021315092734422,-5.363076791145095e-05,9.800000005725675
1727706104.7839599,2.5883970687681187e-08,6.103824028373743e-07,0.9993531861054934,0.03596122106416966,-3.3905357244239e-08,-3.083879655051062e-08,-0.029819946907055455,0.04152365806112607,0.004194715166360951,9.799999975460187
1727706104.8024793,2.61483544000919e-08,6.097093822253021e-07,0.9993315215703865,0.03655830952660727,-3.28148958455572e-08,-3.1854508733247536e-08,-0.028043208255072505,-0.019992005050812302,-0.005099747133160116,9.80000000813796
1727706104.8316977,2.632137216723383e-08,6.092226099638152e-07,0.9993165264206196,0.036965930561191795,-3.1779484631054235e-08,-2.9028965995287463e-08,-0.02709173156928528,0.012826137707980844,-0.0002055622498407412,9.800000006640957
1727706104.9065936,2.6481781522448345e-08,6.08750132706495e-07,0.9993028907094444,0.037332728528420456,-3.084029643771493e-08,-2.4202132443951947e-08,-0.022689080116942775,-0.0015460458017698365,-0.0019761374050115224,9.800000012994733
1727706104.9368947,2.660960579920152e-08,6.082932345094718e-07,0.9992903092648779,0.03766799449047126,-2.989632075284861e-08,-2.319725511722135e-08,-0.02232835972798479,0.010895742065227964,-0.00010459420389758783,9.800000005983605
1727706104.9800239,2.667504530734569e-08,6.074841712398674e-07,0.9992814561114973,0.037902130168581016,-2.8314159641159147e-08,-8.75873338622948e-09,-0.010659812975445215,0.0028488679049874805,-0.0006825740901606119,9.800000020764127
1727706105.1722515,2.66207285899071e-08,6.063768047706622e-07,0.999281989068457,0.037888076264439574,-4.339826605222252e-08,1.2801420591369198e-08,0.008828268901827276,-0.061610017583848146,-0.05631563611842337,9.80000219320293
1727706105.1756046,2.644348791767519e-08,6.059891468024947e-07,0.9992878065133086,0.03773433123101738,-2.5059588264154578e-08,1.7522267421580403e-08,0.010427417320758622,-0.006392030472772845,-0.00031719680913535583,9.800000011722647
1727706105.2157745,2.6175206701082514e-08,6.051357866077533e-07,0.9992967196874373,0.03749754687390533,-2.3440205322132687e-08,1.9309741297408176e-08,0.0119893365607508,-0.00623641637981922,-0.00056576239609539,9.800000027950631
1727706105.4638243,2.590085413429926e-08,6.029454124104939e-07,0.9993055168506766,0.03726236695968593,-3.466398575680772e-08,2.5826495241625037e-08,0.019140328182044447,-0.052642367784830724,-0.049776978093374516,9.800006909165846
1727706105.4733765,2.5638224470553298e-08,6.026656035679113e-07,0.9993167739871631,0.036959237377482745,-1.8205500155310992e-08,2.934576748663452e-08,0.02035164524526216,-0.010741174225628333,-0.00029676626570041085,9.800000009690937
1727706105.514037,2.5227312658015863e-08,6.018998924213519e-07,0.999335155824358,0.03645883066067068,-1.675473886797715e-08,3.552282493255894e-08,0.02550352074586348,-0.013316364303427362,-0.0008107949990366483,9.800000030318273
1727706105.546751,2.492051529824708e-08,6.0142035324486e-07,0.9993471981310006,0.036127241623959916,-2.1755506745786382e-08,2.9178490232608623e-08,0.019793949931222753,0.007389733370458592,-0.014557386869776309,9.800000761212013
1727706105.5879216,2.467020357648704e-08,6.011941287803144e-07,0.9993576545294411,0.03583682928290122,-1.5141556769019232e-08,2.7592833943169894e-08,0.019323223989308566,-0.008872088813800132,-2.365928132735542e-05,9.800000004979834
1727706105.6233323,2.4440835104697597e-08,6.000124993344517e-07,0.9993631674132084,0.035682763590828614,-1.6179916509304824e-08,1.5236145018623113e-08,0.009200621008207396,0.0034539391267688524,-0.008174895220458988,9.800000419113195
1727706105.8695753,2.422118494413537e-08,5.985155926621039e-07,0.9993670916977673,0.03557268658939938,-4.12761472365849e-08,5.896040148079443e-09,0.001143950408782763,0.022491061431695908,-0.08306156883350879,9.800003887190838
1727706105.8733983,2.415956456294787e-08,5.983484153853057e-07,0.9993673954675195,0.03556415155894943,-9.560545750365608e-09,3.807698341884716e-09,0.0005008952513386502,0.0002636171943341761,-0.0001560122934870921,9.800000012411491
1727706105.9082632,2.4112803156384754e-08,5.981819161606626e-07,0.999366160061415,0.035598850034015805,-9.861834917145414e-09,-1.450317205124139e-09,-0.004231454829584385,0.01588580400855516,4.59687876351596e-05,9.80000008526307
1727706105.9869692,2.4103702801465426e-08,5.98003155681144e-07,0.9993628878751513,0.03569059172217859,-8.801627047242793e-09,-2.761097262742936e-09,-0.004625630459011163,0.002237551176523805,1.883993515652386e-05,9.800000001630014
1727706106.0145252,2.409987287952997e-08,5.978740113766318e-07,0.9993604079809493,0.03575996308432322,-8.539374120633621e-09,-2.8493131640293473e-09,-0.00462795972224871,0.0021568965017919614,7.427358874816368e-06,9.800000001632228
1727706106.048522,2.4117495464760042e-08,5.963840854605395e-07,0.999344340519045,0.03620620212337339,-1.861097264452069e-07,-4.7571600252011746e-08,-0.05348349900155428,0.3264532565450701,-0.4528168078288177,9.799998900897727
1727706106.2814972,2.4813035472379336e-08,5.909347284509726e-07,0.9992766705902427,0.03802808979858613,-2.512595801787834e-07,-1.1950299615695213e-07,-0.1102283536776693,0.287861266907294,-0.6717692012068875,9.800006372962047
1727706106.284429,2.5853147002349316e-08,5.905264768691996e-07,0.9992060639642,0.039840202519835055,4.546853977458866e-09,-1.4560874533454627e-07,-0.1221701484636937,0.06154419304373282,-0.005030557883525296,9.800000192915489
1727706106.315227,2.6907662438693567e-08,5.894458778285746e-07,0.9991322765826474,0.04164965654633612,4.21144189486214e-09,-1.4382745237972776e-07,-0.12055637597250096,0.04956384130161407,-0.01308364287838374,9.800000493433286
1727706106.6080499,2.7925017765209554e-08,5.878376752283121e-07,0.9990541374299107,0.04348368066103098,-3.290429415499559e-07,-1.4627142202138845e-07,-0.12608463073955156,0.12914009127291606,-0.9256167409256388,9.799994449594992
1727706106.6180806,2.9503958836680832e-08,5.872637581072931e-07,0.9989317395897581,0.04621016814331841,1.2056070690020714e-08,-1.634211500847003e-07,-0.13749088746657984,0.058567312912493286,-0.0032145653299274594,9.800000044241958
1727706106.652909,3.075200155726725e-08,5.873918286054233e-07,0.9988342696599919,0.04827112752406526,1.202386994315515e-08,-1.6362064072291337e-07,-0.13755803717927734,0.056224104606618495,-0.002562350733251043,9.800000000374776
1727706106.6841934,3.19999208601331e-08,5.875118622249402e-07,0.9987325412649,0.0503320078896945,1.1640911585095314e-08,-1.6362279662983417e-07,-0.13755948358371456,0.05617368327229896,-0.002567075046280621,9.800000000353855
1727706106.7467864,3.367823061608958e-08,5.87772921806351e-07,0.9985891959378166,0.05310007303119524,1.097936808870409e-08,-1.6501737789032437e-07,-0.1386912307031792,0.056969216459319745,-0.0024174844630746517,9.799999993353174
1727706106.7764723,3.494386455630589e-08,5.868096797751604e-07,0.9984663517767796,0.055361939716946806,9.070559163438922e-09,-1.8081671129114972e-07,-0.15247939394859403,0.07220598813011449,-0.011844304335661885,9.8000004577287
1727706107.006766,3.6129428366909245e-08,5.834557935003113e-07,0.9983378182062503,0.057633330103699976,-6.820019218601106e-07,-1.7929766833901084e-07,-0.149548293502686,0.017981840037439027,-1.9341336841282724,9.799988558481314
1727706107.034515,3.7905733314894536e-08,5.829991638049818e-07,0.9981582139879294,0.06066448588824874,1.971449552568765e-08,-1.7931349504855326e-07,-0.152048014573147,0.058282349336434836,-0.004073601945535048,9.800000044543227
1727706107.0657737,3.922754554342564e-08,5.827676426089776e-07,0.9980213216323139,0.06287639912517584,1.8747800177444144e-08,-1.7362438918647476e-07,-0.14722900837713418,0.05178544384808716,-0.007834411016963352,9.800000196402921
1727706107.096113,4.050119257517339e-08,5.820185925900859e-07,0.9978883936741314,0.06495193430623314,-1.7404331485936338e-07,-1.6010730094270227e-07,-0.12167447988949531,-0.3008452419225664,-0.5880206557886875,9.799996828026579
1727706107.1748013,4.151996446514104e-08,5.820209517396153e-07,0.9977785816366407,0.06661758046366778,2.0445626992208058e-08,-1.2899082078817538e-07,-0.11004558979264911,0.03163008984673274,-0.005387789530888699,9.800000110672608
1727706107.2225242,4.265473685853751e-08,5.81528483875738e-07,0.9976542905477755,0.06845375483692889,1.020401224016084e-08,-9.501171356708837e-08,-0.08043530702721097,-0.011895321962407958,-0.03937940485557779,9.800001479620743
1727706107.4242573,4.3245444768012036e-08,5.800972276586439e-07,0.9975765320257819,0.06957774609080147,-3.196893217050968e-07,-8.47345729246897e-08,-0.06638163325548502,-0.15296481640992682,-0.9712757840437228,9.799994385331647
1727706107.428631,4.378670739529859e-08,5.801538186916343e-07,0.9975113947085361,0.0705054425295874,2.3748263850927075e-08,-7.026625190367728e-08,-0.06147597475171383,0.0178754202503119,-0.0037223102000120247,9.800000116696632
1727706107.4627774,4.446766893461577e-08,5.801046086174392e-07,0.9974246945133887,0.07172153633696704,2.3009001501189158e-08,-6.92692811377306e-08,-0.06074201190138072,0.02075661842826188,-0.005269162143693609,9.800000207030028
1727706107.7287042,4.4826610936542145e-08,5.779969412558199e-07,0.9973627344218503,0.07257806821784091,-4.641476218670699e-07,-6.350167337722325e-08,-0.05029419184030917,-0.12524673828147667,-1.3735600056292623,9.799991948027643
1727706107.7331834,4.5136642898051476e-08,5.7752859785465e-07,0.9973216043055955,0.07314108000964276,2.6765441091864555e-08,-4.0260236210370175e-08,-0.03612441973317926,0.0008983632922698427,-0.010204741444576918,9.80000037872177
1727706107.7631817,4.5556705065784924e-08,5.781350450039789e-07,0.9972689875239937,0.07385503721840558,2.8760381669052627e-08,-3.939139206505054e-08,-0.035743349682706684,0.011731638264782816,0.00032915815320850954,9.799999971127367
1727706107.7994106,4.5859635893594416e-08,5.783901523248396e-07,0.9972319102359648,0.07435399926561936,-1.215793439468335e-09,-3.5833246081852605e-08,-0.028586428836748355,-0.08836332362080036,-0.0940768586612779,9.799999523419183
1727706107.8380234,4.6091517942022936e-08,5.787636748624387e-07,0.9972026391919357,0.07474554427055224,2.7167777456827133e-08,-2.7928748251652626e-08,-0.02588865736821431,0.006450268127431741,-0.0006191389279630562,9.800000005810364
1727706107.8788896,4.6274996032946215e-08,5.788849116361695e-07,0.9971796586383683,0.07505150496512542,2.025795840653648e-08,-1.8386001055160268e-08,-0.016771701843632577,-0.02150133593216129,-0.02235248565305331,9.80000083586226
1727706108.13169,4.619080157549627e-08,5.759380699925121e-07,0.9971555721936073,0.07537084876068134,-6.674904059182665e-07,-1.539018260082615e-08,-0.015731712066531726,-9.225913997480799e-05,-1.9229267919399644,9.799988541936614
1727706108.1370564,4.553737457963081e-08,5.661468818677995e-07,0.9971384109329429,0.0755975491785506,-6.476247512459949e-07,-1.4092737516019583e-08,-0.014873577452194291,-0.0010785430352888402,-1.9227267247819972,9.800002313564187
1727706108.1678996,4.489466641527914e-08,5.566481143345159e-07,0.9971221434209636,0.07581181371838464,-6.283243943003862e-07,-1.2890959743793544e-08,-0.014055759220112558,-0.0019588630282126366,-1.922518992589992,9.800002272848923
1727706108.2075198,4.4054954695935026e-08,5.444229174295495e-07,0.997101779321222,0.07607918029365607,-6.034782440403381e-07,-1.1426929954150978e-08,-0.013026429136319552,-0.002980741419426926,-1.9222439649125111,9.800002220483812
1727706108.2842195,4.343845126805328e-08,5.35572969290212e-07,0.9970874527155109,0.07626671382067901,-5.854876931784712e-07,-1.042673994375156e-08,-0.012298951746796842,-0.0036426136422142755,-1.9220391382458666,9.800002182580156
1727706108.316401,4.334370316653621e-08,5.335552702797267e-07,0.9970739362589973,0.07644321835651535,7.495091351009299e-07,-1.0836701799576133e-08,-0.011504950990622804,-0.0031856304253304727,1.7303378040247774,9.800024242646854
1727706108.5529306,4.4551365699868795e-08,5.481253420959164e-07,0.9970575161877968,0.07665708977725927,7.199529434460028e-07,-9.91459272829957e-09,-0.010274073040050402,-0.001976488875584011,1.7302173089645694,9.799997953160785
1727706108.5570607,4.542457633058322e-08,5.586740017742572e-07,0.9970463405290895,0.07680231010351485,6.985164954655426e-07,-9.25523517295909e-09,-0.009435535568392394,-0.0012116796646433163,1.730108136861882,9.799997920933231
1727706108.5795386,4.600352756636731e-08,5.656936227627987e-07,0.9970470908454867,0.07679256888677216,2.2308873788201387e-07,7.2463569661389535e-09,0.011570386941283916,-0.16773060606629256,0.4417328032940371,9.799994150656259
1727706108.8514318,4.592024438700291e-08,5.666270523562175e-07,0.9970650440298428,0.07655911424150835,5.238703126192542e-08,2.0570103585292247e-08,0.016090025191531777,-0.006671235115544895,0.0007613647259620993,9.799999933044486
1727706108.856787,4.5768568257143016e-08,5.689510294591138e-07,0.997108809036277,0.07598699192580172,4.927346740630528e-08,3.763375837897083e-08,0.0308596596727396,-0.011360723048630459,0.004416480624947855,9.799999755620743
1727706108.8847532,4.551797126407734e-08,5.696688215708347e-07,0.9971440189342291,0.07552354270932121,4.5960672984287786e-08,3.8012710445619955e-08,0.031000644627271118,-0.006339099196116572,-0.00011695905474151338,9.799999990391598
1727706108.9176898,4.526558684176325e-08,5.703643675674381e-07,0.9971790333464046,0.07505981250977883,4.459297579536325e-08,3.7986778023727785e-08,0.031003669454795477,-0.0062312539310489835,-0.00011578874252466499,9.799999991266052
1727706108.9563854,4.495710042572211e-08,5.716953656081876e-07,0.9972259861557574,0.07443341007469861,4.217879892167871e-08,3.848860446921148e-08,0.03144744296520641,-0.00648844553019039,0.00046532710431252127,9.799999964936736
1727706109.014143,4.4762755086121254e-08,5.733874493434052e-07,0.9972657424548779,0.0738988425186109,6.520988995466826e-08,4.589369510695892e-08,0.03866279208213681,-0.02957248339934425,0.06975338269450959,9.7999967141315
1727706109.230117,4.4433436569233674e-08,5.740011544814166e-07,0.9973090107721149,0.07331259804708734,3.752354943534452e-08,4.763301307621835e-08,0.03925189188036101,-0.008676541431047954,-5.648674871449051e-05,9.799999983859824
1727706109.242585,4.39874494033632e-08,5.747645378224037e-07,0.9973662735558629,0.07252941729366985,3.59776202338596e-08,4.7630959590318366e-08,0.03926472609425756,-0.008219573614117619,-0.00019345800256494297,9.799999993079865
1727706109.2691834,4.365202916764116e-08,5.753179030165255e-07,0.9974088183561587,0.07194198402211693,3.491148716633639e-08,4.7602496843682956e-08,0.039264801447706534,-0.008216889850249114,-0.00019313162012060195,9.799999993295739
1727706109.300916,4.331588671801368e-08,5.758553951792217e-07,0.9974510171775197,0.07135452565322942,3.3875694658037537e-08,4.757479856581636e-08,0.039264803064966824,-0.008216832874540125,-0.00019311356169502965,9.799999993479798
1727706109.4005103,4.2484599873959225e-08,5.694962836131455e-07,0.9974918783359477,0.07078101901990586,-6.53563223540514e-07,4.638444304980103e-08,0.037402136930420396,0.0033884161371983534,-1.9204169401219429,9.800002323284268
1727706109.4419165,4.11252045033026e-08,5.568122224988887e-07,0.9975414280362828,0.07007923623314904,-6.277410997810829e-07,4.1044642374392434e-08,0.03387345317152154,0.0058971197059906385,-1.9202525080339579,9.800002269509482
1727706109.6365848,4.017003400461526e-08,5.476270378321263e-07,0.9975751703967306,0.06959726580572184,-6.090431206216386e-07,3.740253948255891e-08,0.031393878790681264,0.007427831768703163,-1.9201317487421965,9.800002230212865
1727706109.6427908,3.955384505235641e-08,5.425459250872636e-07,0.9975940492388202,0.06932613448764025,-7.477670247765918e-08,1.5819933577214722e-08,0.005158634696154693,0.1876947048246738,-0.4576760645966349,9.80000581872519
1727706109.6770957,3.9637862129105744e-08,5.443825103357595e-07,0.9975947316935105,0.0693163133544647,9.754598962560455e-08,1.1173770133516087e-09,3.0578194490653174e-05,0.0011145503360961947,-1.9459720125911184e-05,9.799999988503743
1727706109.9143548,3.9722081931243076e-08,5.458151641031374e-07,0.9975947356772596,0.0693162560206379,9.47128849896461e-08,1.0022052341635227e-09,6.535529813291845e-07,2.3856974052523335e-05,1.365648559723734e-05,9.799999981106508
1727706109.9182472,3.98039281830141e-08,5.47205309291246e-07,0.9975947357624071,0.06931625479519421,9.190019145931105e-08,9.706981527630593e-10,1.3969549040920523e-08,5.437830576185425e-07,1.0848791770006731e-05,9.799999981660667
1727706109.9514844,3.9909295891383673e-08,5.489948217807299e-07,0.9975947357642554,0.06931625476857811,8.827921082520589e-08,9.32271015211284e-10,8.336257265892915e-11,3.7265690110471603e-08,1.0811381254821523e-05,9.799999982392341
1727706109.981543,3.998558854104162e-08,5.502905182382374e-07,0.9975947357642658,0.06931625476841541,8.565682996922663e-08,9.04451907825727e-10,2.2591958238551214e-12,3.404698465170406e-08,1.0835719180927654e-05,9.799999982924508
1727706110.0123088,4.0059615429374324e-08,5.515477298580793e-07,0.9975947357642658,0.0693162547684042,8.31117017116153e-08,8.775171718582713e-10,5.128149102859132e-13,3.372852673202321e-08,1.085977881965141e-05,9.7999999834086
1727706110.0566623,4.013144279285023e-08,5.527676022083551e-07,0.9975947357642656,0.06931625476839681,8.064394980982564e-08,8.514786892496539e-10,4.644284591778983e-13,3.347451142545341e-08,1.0883083536576298e-05,9.799999983918058
1727706110.2775974,4.022390172137046e-08,5.543379162833976e-07,0.9975947357642656,0.06931625476838749,7.746595786592082e-08,8.180908318895235e-10,4.4217533845575537e-13,3.316489988447827e-08,1.0913107766196542e-05,9.79999998454712
